"Time (s)","Acceleration x (m/s^2)","Acceleration y (m/s^2)","Acceleration z (m/s^2)","Absolute acceleration (m/s^2)"
3.541208338E-3,-1.628164215E0,1.040935364E0,8.854985962E0,9.063401212E0
1.356720834E-2,-1.749412079E0,1.404379578E0,8.950786743E0,9.227638265E0
2.359220834E-2,-2.262395325E0,1.911824341E0,8.664581909E0,9.156881815E0
3.361820834E-2,-2.320175171E0,2.498454437E0,8.614436188E0,9.264663957E0
4.364420834E-2,-2.306703186E0,3.279230804E0,8.475525055E0,9.375967108E0
5.367020832E-2,-2.534230042E0,4.329746246E0,7.945926361E0,9.397168201E0
6.369520834E-2,-2.966830444E0,5.496120758E0,7.381001129E0,9.668950509E0
7.372120832E-2,-3.516337738E0,6.588099976E0,6.695726166E0,1.002997713E1
8.374720832E-2,-3.887565765E0,7.366032257E0,5.716312866E0,1.010187268E1
9.377320833E-2,-4.484973450E0,7.687563629E0,5.048701172E0,1.023244863E1
1.037982083E-1,-5.566025391E0,7.773634644E0,4.470004578E0,1.055419230E1
1.138242083E-1,-6.068530426E0,8.004454651E0,4.384981384E0,1.096021978E1
1.238502083E-1,-6.279292145E0,7.957153015E0,4.978796539E0,1.129310449E1
1.338762083E-1,-7.502248993E0,7.148085480E0,5.096601562E0,1.154790948E1
1.439022083E-1,-6.894812164E0,6.522835693E0,5.629942474E0,1.103549149E1
1.539272083E-1,-5.306914215E0,5.466482391E0,7.102580109E0,1.041596911E1
1.639532083E-1,-4.492158508E0,3.608246613E0,7.768395538E0,9.671964688E0
1.739792083E-1,-4.227658539E0,2.669099579E0,7.332352295E0,8.874715740E0
1.840052083E-1,-4.712051239E0,2.252216492E0,7.318131866E0,8.990603985E0
1.940312083E-1,-6.358327789E0,1.490151215E0,7.546706543E0,9.980063255E0
2.040562083E-1,-6.845863953E0,1.776505737E0,8.380173340E0,1.096581648E1
2.140822083E-1,-6.968309326E0,2.032922516E0,8.856333160E0,1.145097139E1
2.241082083E-1,-6.668632507E0,2.244432678E0,8.831484833E0,1.129173423E1
2.341342083E-1,-5.979615326E0,2.451003113E0,8.320447540E0,1.053532453E1
2.441592083E-1,-5.178930359E0,2.678829346E0,7.642207947E0,9.612532893E0
2.541852083E-1,-4.509522400E0,2.991379395E0,6.996151428E0,8.844788170E0
2.642112083E-1,-4.074976044E0,3.342998199E0,6.510411530E0,8.376546126E0
2.742372083E-1,-4.002826080E0,3.793261871E0,6.329437866E0,8.394833885E0
2.842632083E-1,-4.315825195E0,4.365521851E0,6.534661102E0,8.965819754E0
2.942882083E-1,-5.044210510E0,5.043013000E0,7.141499176E0,1.009341618E1
3.043142083E-1,-6.061794434E0,5.768703918E0,8.021968231E0,1.159203481E1
3.143402083E-1,-7.225474548E0,6.427783356E0,9.027876434E0,1.322975564E1
3.243662083E-1,-8.364905090E0,6.976392517E0,1.004740631E1,1.481863905E1
3.343912083E-1,-9.442963257E0,7.444169769E0,1.115734818E1,1.640340321E1
3.444172083E-1,-1.028571075E1,7.818241882E0,1.218780533E1,1.776128798E1
3.544432083E-1,-1.061427750E1,7.897576904E0,1.273581573E1,1.836397588E1
3.644692083E-1,-1.023526566E1,7.567213898E0,1.251173172E1,1.784844026E1
3.744952083E-1,-9.649982758E0,7.161707153E0,1.205832458E1,1.702396571E1
3.845202083E-1,-9.286538544E0,7.004384308E0,1.195099777E1,1.667715639E1
3.945462083E-1,-8.843759308E0,6.808441772E0,1.165835632E1,1.613952385E1
4.045722083E-1,-8.544082489E0,6.736142120E0,1.134580627E1,1.571955077E1
4.145982083E-1,-8.530161438E0,6.844965820E0,1.156989029E1,1.592104182E1
4.246232083E-1,-8.604856110E0,7.005282440E0,1.179053146E1,1.619055783E1
4.346492083E-1,-8.524922333E0,7.030879211E0,1.174487640E1,1.612605609E1
4.446752083E-1,-8.193511505E0,6.858288116E0,1.138277939E1,1.561209189E1
4.547012083E-1,-7.699389038E0,6.560706940E0,1.088611221E1,1.486038042E1
4.647272083E-1,-7.162156219E0,6.211782532E0,1.037432648E1,1.405380282E1
4.747522083E-1,-6.529272308E0,5.712870026E0,9.745035095E0,1.304737482E1
4.847782083E-1,-5.939947815E0,5.141657867E0,9.068891144E0,1.199851709E1
4.948042083E-1,-5.529651031E0,4.567451935E0,8.538394318E0,1.115091186E1
5.048302083E-1,-5.482199707E0,4.128414917E0,8.354426880E0,1.081178856E1
5.148562083E-1,-5.745801544E0,3.807631989E0,8.497978363E0,1.094202600E1
5.248812083E-1,-6.174659729E0,3.516487427E0,8.724307709E0,1.125191768E1
5.349072083E-1,-6.765032043E0,3.320993958E0,9.136849823E0,1.184384583E1
5.449332083E-1,-7.481142883E0,3.242706757E0,9.773475952E0,1.272805869E1
5.549592083E-1,-8.134234772E0,3.226091309E0,1.043899200E1,1.362152688E1
5.649842083E-1,-8.604706421E0,3.238066406E0,1.098251175E1,1.432276548E1
5.750102083E-1,-8.760981445E0,3.221450958E0,1.123982666E1,1.461048410E1
5.850362083E-1,-8.594677277E0,3.179538116E0,1.111393845E1,1.440477587E1
5.950622083E-1,-8.155191193E0,3.101849670E0,1.065634003E1,1.377266124E1
6.050882083E-1,-7.616162109E0,3.016527100E0,1.006312363E1,1.297581667E1
6.151132083E-1,-7.139403534E0,2.985242157E0,9.500443726E0,1.225321119E1
6.251392083E-1,-6.856491852E0,3.018922119E0,9.136101379E0,1.181497862E1
6.351652083E-1,-6.771917725E0,3.171454926E0,9.023984528E0,1.171961146E1
6.451912083E-1,-6.774761810E0,3.372037811E0,9.006770325E0,1.176392572E1
6.552162083E-1,-6.754254456E0,3.609743500E0,8.993298340E0,1.181226551E1
6.652422083E-1,-6.670129395E0,3.858526154E0,8.930878143E0,1.179573799E1
6.752682083E-1,-6.458918610E0,4.091890869E0,8.727451172E0,1.160299980E1
6.852942083E-1,-6.020330658E0,4.231700134E0,8.271499329E0,1.107110511E1
6.953202083E-1,-5.475613403E0,4.260140991E0,7.603288879E0,1.029277150E1
7.053452083E-1,-4.938829651E0,4.273014221E0,6.947951660E0,9.535445513E0
7.153712083E-1,-4.533921661E0,4.262386322E0,6.385870514E0,8.916486136E0
7.253972083E-1,-4.264182587E0,4.256548462E0,5.974525909E0,8.485070287E0
7.354232083E-1,-4.141886902E0,4.268523560E0,5.695506134E0,8.234944481E0
7.454482083E-1,-4.200864258E0,4.330494690E0,5.605543213E0,8.235445312E0
7.554742083E-1,-4.427642670E0,4.450245667E0,5.736820221E0,8.504105617E0
7.655002083E-1,-4.782255249E0,4.623136139E0,6.055657196E0,8.995239691E0
7.755262083E-1,-5.157973938E0,4.797074432E0,6.428232422E0,9.536183216E0
7.855522083E-1,-5.451812897E0,4.832550659E0,6.704857178E0,9.901056484E0
7.955772083E-1,-5.626050568E0,4.753664703E0,6.827751617E0,1.004330450E1
8.056032083E-1,-5.731281738E0,4.636458435E0,6.920558624E0,1.011130401E1
8.156292083E-1,-5.822741547E0,4.580474854E0,7.090155945E0,1.025452975E1
8.256552083E-1,-5.834866333E0,4.494703217E0,7.184160461E0,1.028883782E1
8.356802083E-1,-5.769302673E0,4.398004303E0,7.234455872E0,1.024522557E1
8.457062083E-1,-5.644162903E0,4.293072510E0,7.195087738E0,1.010229350E1
8.557284167E-1,-5.528902588E0,4.229454803E0,7.183711395E0,1.000313757E1
8.657544167E-1,-5.436694336E0,4.205654297E0,7.198380890E0,9.952982508E0
8.757804167E-1,-5.330115967E0,4.200864258E0,7.189998322E0,9.887035582E0
8.858054167E-1,-5.200784912E0,4.156706085E0,7.110064545E0,9.740605064E0
8.958314167E-1,-5.119503937E0,4.135749664E0,7.086413727E0,9.671142919E0
9.058574167E-1,-5.107379150E0,4.156257019E0,7.115603027E0,9.694926541E0
9.158834167E-1,-5.114264832E0,4.166735229E0,7.150480499E0,9.728656568E0
9.259084167E-1,-5.092110901E0,4.127217407E0,7.150181122E0,9.699928197E0
9.359344167E-1,-5.064418488E0,4.052223358E0,7.140451355E0,9.646496479E0
9.459604167E-1,-5.013674011E0,3.939058685E0,7.126530304E0,9.562454946E0
9.559864167E-1,-5.043162689E0,3.828139343E0,7.222929840E0,9.605147381E0
9.660124167E-1,-5.047653351E0,3.663332062E0,7.315587158E0,9.613356418E0
9.760374167E-1,-4.903203735E0,3.348686371E0,7.168143768E0,9.307920947E0
9.860634167E-1,-4.675377502E0,2.951113129E0,6.876699829E0,8.823674066E0
9.960894167E-1,-4.504582672E0,2.575244751E0,6.609804840E0,8.403134570E0
1.006115417E0,-4.484823761E0,2.260599060E0,6.507268066E0,8.220005472E0
1.016140417E0,-4.675676880E0,2.045196991E0,6.695576477E0,8.418760561E0
1.026166417E0,-5.044509888E0,1.924996948E0,7.096592560E0,8.917080196E0
1.036192417E0,-5.481600952E0,1.840273132E0,7.572752380E0,9.527913350E0
1.046218417E0,-5.970484314E0,1.827699280E0,8.086633759E0,1.021669287E1
1.056244417E0,-6.401438141E0,1.832938385E0,8.533155212E0,1.082371523E1
1.066269417E0,-6.735094299E0,1.892664185E0,8.871002655E0,1.129771486E1
1.076295417E0,-7.022496643E0,1.992506561E0,9.196126556E0,1.174113645E1
1.086321417E0,-7.265591125E0,2.171085205E0,9.527836761E0,1.217711373E1
1.096347417E0,-7.447013855E0,2.380350037E0,9.822124786E0,1.255381285E1
1.106372417E0,-7.575446777E0,2.637664948E0,1.006387207E1,1.286958396E1
1.116398417E0,-7.648045807E0,2.919079742E0,1.026535309E1,1.312977933E1
1.126424417E0,-7.747738495E0,3.242706757E0,1.046234344E1,1.341652821E1
1.136450417E0,-7.832162933E0,3.601211243E0,1.065454376E1,1.370513777E1
1.146476417E0,-7.936196594E0,4.004322968E0,1.087443649E1,1.404532619E1
1.156501417E0,-7.978259125E0,4.427193604E0,1.100271973E1,1.429379247E1
1.166527417E0,-7.898774414E0,4.818779297E0,1.098236206E1,1.436048563E1
1.176553417E0,-7.737559662E0,5.174439697E0,1.082833237E1,1.427926600E1
1.186579417E0,-7.566764832E0,5.500910797E0,1.065110092E1,1.417610315E1
1.196604417E0,-7.323520660E0,5.741011505E0,1.033316208E1,1.390566095E1
1.206630417E0,-7.047195282E0,5.840704193E0,9.927505646E0,1.350304244E1
1.216656417E0,-6.922654266E0,5.952671356E0,9.671388245E0,1.330011988E1
1.226682417E0,-6.934479675E0,6.043831787E0,9.570198669E0,1.327417092E1
1.236708417E0,-7.055428162E0,6.099965057E0,9.555678864E0,1.335288878E1
1.246733417E0,-7.256609802E0,6.122717743E0,9.681417389E0,1.356008485E1
1.256759417E0,-7.505392456E0,6.101312256E0,9.860145721E0,1.381229166E1
1.266785417E0,-7.792345734E0,6.075416107E0,1.015323624E1,1.416755233E1
1.276811417E0,-8.050858154E0,6.031707001E0,1.048344955E1,1.452929871E1
1.286836417E0,-8.163274384E0,5.879174194E0,1.065708847E1,1.465528139E1
1.296862417E0,-8.147108002E0,5.669011230E0,1.069915100E1,1.459400182E1
1.306888417E0,-8.007598114E0,5.418582001E0,1.060559555E1,1.435135239E1
1.316914417E0,-7.805817719E0,5.182223511E0,1.049692154E1,1.407023783E1
1.326940417E0,-7.624694366E0,4.988376617E0,1.040396484E1,1.382976319E1
1.336965417E0,-7.424859924E0,4.811145172E0,1.025712021E1,1.354563316E1
1.346991417E0,-7.244335327E0,4.643942871E0,1.011551468E1,1.328044566E1
1.357017417E0,-7.128027191E0,4.522096252E0,1.002959335E1,1.310919025E1
1.367043417E0,-7.051985321E0,4.404590607E0,9.959988098E0,1.297429298E1
1.377068417E0,-6.860533447E0,4.199816437E0,9.691446533E0,1.259482089E1
1.387094417E0,-6.528224487E0,3.894152069E0,9.215286713E0,1.194586307E1
1.397120417E0,-6.212830353E0,3.600462799E0,8.768914948E0,1.133386354E1
1.407146417E0,-5.918542328E0,3.314407654E0,8.330626373E0,1.074308043E1
1.417172417E0,-5.589676208E0,3.007396088E0,7.859555969E0,1.010255074E1
1.427197417E0,-5.341043243E0,2.756368103E0,7.497908020E0,9.609523023E0
1.437223417E0,-5.172044678E0,2.554887085E0,7.250322876E0,9.265240200E0
1.447249417E0,-5.018763428E0,2.373763733E0,6.996450806E0,8.931576819E0
1.457275417E0,-4.942571869E0,2.240241394E0,6.824608154E0,8.719115474E0
1.467300417E0,-4.934039612E0,2.159409485E0,6.707401886E0,8.602153002E0
1.477326417E0,-4.954247589E0,2.129172363E0,6.643933868E0,8.556856980E0
1.487352417E0,-5.041067047E0,2.140399017E0,6.649172974E0,8.614242054E0
1.497378417E0,-5.172194366E0,2.199526062E0,6.712640991E0,8.754944805E0
1.507404417E0,-5.327571259E0,2.302212524E0,6.846911774E0,8.975711607E0
1.517429417E0,-5.498366089E0,2.445764008E0,7.031328278E0,9.254910511E0
1.527455417E0,-5.623805237E0,2.590363312E0,7.133715363E0,9.446007744E0
1.537481417E0,-5.673202515E0,2.742596741E0,7.190896454E0,9.561174377E0
1.547507417E0,-5.715863800E0,2.906954956E0,7.247628479E0,9.677272584E0
1.557532417E0,-5.726940765E0,3.069217529E0,7.282805328E0,9.759979520E0
1.567558417E0,-5.695805511E0,3.230731659E0,7.270530853E0,9.784704715E0
1.577584417E0,-5.675896912E0,3.410058746E0,7.280559998E0,9.841283467E0
1.587610417E0,-5.619015198E0,3.570225677E0,7.223378906E0,9.823290997E0
1.597636417E0,-5.456153870E0,3.679797821E0,7.036567383E0,9.634511279E0
1.607661417E0,-5.302423553E0,3.787873077E0,6.859186249E0,9.461084187E0
1.617687417E0,-5.235213318E0,3.924239502E0,6.780599670E0,9.422507418E0
1.627713417E0,-5.201832733E0,4.098028107E0,6.795867920E0,9.488768041E0
1.637739417E0,-5.148393860E0,4.247567139E0,6.758595428E0,9.498757713E0
1.647764417E0,-5.012326813E0,4.321812744E0,6.639293518E0,9.374524196E0
1.657790417E0,-4.840035095E0,4.318220215E0,6.419550476E0,9.125984542E0
1.667816417E0,-4.686005402E0,4.282444611E0,6.237678680E0,8.899809761E0
1.677842417E0,-4.641248474E0,4.311035156E0,6.212231598E0,8.872318352E0
1.687868417E0,-4.654121704E0,4.336631927E0,6.254294128E0,8.920954005E0
1.697893417E0,-4.649930420E0,4.268523560E0,6.236930237E0,8.873637646E0
1.707919417E0,-4.691394196E0,4.183799744E0,6.264622650E0,8.874618681E0
1.717945417E0,-4.808450775E0,4.105662231E0,6.398594055E0,8.995535954E0
1.727971417E0,-5.041067047E0,4.062701569E0,6.665938110E0,9.292611683E0
1.737996417E0,-5.312752075E0,4.014052734E0,7.006779327E0,9.666070065E0
1.748022417E0,-5.554349670E0,3.909570007E0,7.310647430E0,9.979033207E0
1.758048417E0,-5.791157227E0,3.782933350E0,7.600893860E0,1.027724059E1
1.768074417E0,-6.067781982E0,3.704346771E0,7.983498230E0,1.069001437E1
1.778100417E0,-6.305337982E0,3.615581360E0,8.338110809E0,1.106136554E1
1.788125417E0,-6.487060089E0,3.525019684E0,8.652008057E0,1.137387163E1
1.798151417E0,-6.627019043E0,3.437002716E0,8.913214874E0,1.162651145E1
1.808177417E0,-6.685547333E0,3.339854736E0,9.072932739E0,1.175454301E1
1.818203417E0,-6.671626282E0,3.243305511E0,9.133257294E0,1.176630854E1
1.828228417E0,-6.672674103E0,3.162323914E0,9.178912354E0,1.178037793E1
1.838254417E0,-6.696175232E0,3.093018036E0,9.218280487E0,1.180602467E1
1.848280417E0,-6.687942352E0,3.011138306E0,9.233698425E0,1.179223106E1
1.858306708E0,-6.668033752E0,2.926264801E0,9.176667023E0,1.171481615E1
1.868332708E0,-6.613397369E0,2.819985809E0,9.045090637E0,1.155435024E1
1.878357708E0,-6.549330597E0,2.712359619E0,8.932075653E0,1.140318383E1
1.888383708E0,-6.535559235E0,2.632126465E0,8.877139893E0,1.133336829E1
1.898409708E0,-6.407126312E0,2.533481598E0,8.705147552E0,1.110177420E1
1.908435708E0,-6.206842804E0,2.437830505E0,8.422684937E0,1.074288307E1
1.918460708E0,-6.021977234E0,2.391427002E0,8.140821075E0,1.040461920E1
1.928486708E0,-5.889053650E0,2.409689026E0,7.929011536E0,1.016645356E1
1.938512708E0,-5.913602600E0,2.523602142E0,7.878716125E0,1.016923946E1
1.948538708E0,-6.094875641E0,2.710563354E0,8.010442200E0,1.042409934E1
1.958564708E0,-6.389612732E0,2.978805542E0,8.247100067E0,1.084965865E1
1.968589708E0,-6.772067413E0,3.300785980E0,8.607101440E0,1.143845620E1
1.978615708E0,-7.236701202E0,3.664679260E0,9.035510559E0,1.214249437E1
1.988641708E0,-7.635022888E0,4.019591217E0,9.432634735E0,1.278378997E1
1.998667708E0,-7.980953522E0,4.364024963E0,9.802066498E0,1.337239098E1
2.008692708E0,-8.255931702E0,4.706961823E0,1.013482452E1,1.389354404E1
2.018718708E0,-8.427325287E0,5.018464050E0,1.037253021E1,1.427564975E1
2.028744708E0,-8.525670776E0,5.305567017E0,1.055709641E1,1.457011970E1
2.038770708E0,-8.533005524E0,5.586981812E0,1.067011139E1,1.476068515E1
2.048796708E0,-8.433312836E0,5.800886993E0,1.061562469E1,1.474661124E1
2.058821708E0,-8.221054230E0,5.952521667E0,1.042641815E1,1.455089146E1
2.068847708E0,-7.965685272E0,6.057303772E0,1.016566040E1,1.426477207E1
2.078873708E0,-7.721692657E0,6.153403931E0,9.925859070E0,1.400041413E1
2.088899708E0,-7.518415375E0,6.249055023E0,9.722581787E0,1.378788798E1
2.098924708E0,-7.282356262E0,6.292015686E0,9.467512207E0,1.350022079E1
2.108950708E0,-7.013215942E0,6.262077942E0,9.176517334E0,1.313800930E1
2.118976708E0,-6.693780212E0,6.132896576E0,8.813821564E0,1.265316421E1
2.129002708E0,-6.408473511E0,5.967789917E0,8.464448090E0,1.217907758E1
2.139028708E0,-6.182293854E0,5.774242401E0,8.197553101E0,1.177974997E1
2.149053708E0,-5.970783691E0,5.490881653E0,7.902965698E0,1.132505656E1
2.159079708E0,-5.827381897E0,5.208568726E0,7.676935730E0,1.095549680E1
2.169105708E0,-5.783373413E0,4.958738251E0,7.594906311E0,1.075728102E1
2.179131708E0,-5.855673065E0,4.758454742E0,7.693401489E0,1.077590948E1
2.189156708E0,-5.977220306E0,4.582570496E0,7.851023712E0,1.087959964E1
2.199182708E0,-6.099965057E0,4.382137299E0,7.982899475E0,1.096081133E1
2.209208708E0,-6.187083893E0,4.190535736E0,8.100554810E0,1.102087043E1
2.219234708E0,-6.263125763E0,4.018094330E0,8.210126953E0,1.108052395E1
2.229260708E0,-6.295308838E0,3.876339111E0,8.261320496E0,1.108631294E1
2.239285708E0,-6.268364868E0,3.757785645E0,8.267008667E0,1.103434562E1
2.249311708E0,-6.248755646E0,3.679049377E0,8.246950378E0,1.098155463E1
2.259337708E0,-6.212680664E0,3.622167664E0,8.204289093E0,1.090998896E1
2.269363708E0,-6.063740387E0,3.542682953E0,7.981252899E0,1.063108404E1
2.279388708E0,-5.887856140E0,3.467090149E0,7.692054291E0,1.028859870E1
2.289414708E0,-5.769751740E0,3.421435089E0,7.472011871E0,1.004127555E1
2.299440708E0,-5.723198547E0,3.429518280E0,7.334447937E0,9.915176437E0
2.309466708E0,-5.740562439E0,3.451672211E0,7.267686768E0,9.883692079E0
2.319491708E0,-5.712720337E0,3.462449799E0,7.168892212E0,9.798813592E0
2.329517708E0,-5.610482941E0,3.431763611E0,6.975195007E0,9.586859011E0
2.339543708E0,-5.466781769E0,3.390748901E0,6.750063171E0,9.324496439E0
2.349569708E0,-5.286107483E0,3.348836060E0,6.501430206E0,9.023648375E0
2.359595708E0,-5.119354248E0,3.309617615E0,6.273154907E0,8.747218367E0
2.369620708E0,-4.962630157E0,3.276835785E0,6.075116730E0,8.501317199E0
2.379646708E0,-4.818928986E0,3.256927185E0,5.897286530E0,8.282972876E0
2.389672708E0,-4.736749878E0,3.265160065E0,5.777685242E0,8.153509453E0
2.399698708E0,-4.703369293E0,3.300037537E0,5.705684967E0,8.097331128E0
2.409723708E0,-4.742887115E0,3.343896332E0,5.714366913E0,8.144360631E0
2.419749708E0,-4.898264008E0,3.447480927E0,5.869145050E0,8.385998965E0
2.429775708E0,-5.194348297E0,3.622916107E0,6.225703583E0,8.880662163E0
2.439801708E0,-5.511538696E0,3.795058136E0,6.622827759E0,9.414954731E0
2.449827708E0,-5.758225708E0,3.931574249E0,6.915918274E0,9.820609195E0
2.459852708E0,-5.974974976E0,4.052522736E0,7.179520111E0,1.018178646E1
2.469878708E0,-6.144572296E0,4.156406708E0,7.398814087E0,1.047730573E1
2.479904708E0,-6.217770081E0,4.243525543E0,7.538922729E0,1.065380353E1
2.489930708E0,-6.331832886E0,4.373605042E0,7.741900635E0,1.091593121E1
2.499956708E0,-6.439608765E0,4.521796875E0,7.946076050E0,1.118281416E1
2.509981708E0,-6.512207794E0,4.673281860E0,8.127648468E0,1.141521280E1
2.520007708E0,-6.547234955E0,4.819527740E0,8.263416138E0,1.159216026E1
2.530033708E0,-6.528673553E0,4.941224670E0,8.292455750E0,1.165350170E1
2.540059708E0,-6.533912659E0,5.081483002E0,8.350085907E0,1.175744100E1
2.550084708E0,-6.524332581E0,5.184618530E0,8.356223145E0,1.180142577E1
2.560110708E0,-6.469546509E0,5.241500244E0,8.292006683E0,1.175098854E1
2.570136708E0,-6.420149231E0,5.286556549E0,8.221802673E0,1.169461566E1
2.580162708E0,-6.349346466E0,5.283413086E0,8.135132904E0,1.159349135E1
2.590188708E0,-6.280938721E0,5.258564758E0,8.060138855E0,1.149210742E1
2.600213708E0,-6.201603699E0,5.199737091E0,7.990084534E0,1.137271318E1
2.610239708E0,-6.102210388E0,5.092709656E0,7.901618500E0,1.120750812E1
2.620265708E0,-6.004313965E0,4.955295410E0,7.791746979E0,1.101444777E1
2.630291708E0,-6.021827545E0,4.858596497E0,7.820936279E0,1.100160948E1
2.640316708E0,-6.072721710E0,4.772824860E0,7.923622742E0,1.106533341E1
2.650342708E0,-6.144422607E0,4.680017853E0,8.011190643E0,1.112814773E1
2.660368708E0,-6.246360626E0,4.583917694E0,8.123457184E0,1.122585761E1
2.670394708E0,-6.425088959E0,4.551135864E0,8.342302094E0,1.147120787E1
2.680419708E0,-6.614594879E0,4.550088043E0,8.578660583E0,1.174945037E1
2.690445708E0,-6.823859711E0,4.584666138E0,8.844956818E0,1.207549113E1
2.700471708E0,-7.036118317E0,4.670288086E0,9.123527527E0,1.243210788E1
2.710497708E0,-7.203919373E0,4.774770813E0,9.349108429E0,1.273187806E1
2.720523708E0,-7.317383423E0,4.884492645E0,9.482331390E0,1.293510638E1
2.730548708E0,-7.430099030E0,5.040767670E0,9.611961823E0,1.315315629E1
2.740574708E0,-7.563471680E0,5.251679077E0,9.763746185E0,1.342076662E1
2.750600708E0,-7.599396973E0,5.416935425E0,9.774673462E0,1.351437254E1
2.760626708E0,-7.538024597E0,5.548811188E0,9.632469177E0,1.343114228E1
2.770651708E0,-7.491022339E0,5.698948975E0,9.509275360E0,1.337982634E1
2.780677708E0,-7.429051208E0,5.837411041E0,9.394763489E0,1.332395401E1
2.790703708E0,-7.368277588E0,6.000122681E0,9.324559479E0,1.331316628E1
2.800729708E0,-7.288044434E0,6.160289612E0,9.278605042E0,1.331004400E1
2.810755708E0,-7.124135284E0,6.252946930E0,9.141939240E0,1.316919519E1
2.820780708E0,-6.825057220E0,6.226002960E0,8.797804871E0,1.275718972E1
2.830806708E0,-6.581962738E0,6.205196228E0,8.556506653E0,1.245152600E1
2.840832708E0,-6.413562927E0,6.202950897E0,8.408314819E0,1.226010389E1
2.850858167E0,-6.277795258E0,6.169121246E0,8.292455750E0,1.209270824E1
2.860883167E0,-6.212530975E0,6.134992218E0,8.243357849E0,1.200777328E1
2.870909167E0,-6.201004944E0,6.105054474E0,8.258626099E0,1.199704370E1
2.880935167E0,-6.210285645E0,6.051765289E0,8.299491119E0,1.200304394E1
2.890961167E0,-6.158792725E0,5.906866608E0,8.241112518E0,1.186329366E1
2.900987167E0,-6.160888367E0,5.815257111E0,8.269253998E0,1.183867908E1
2.911012167E0,-6.244714050E0,5.810167694E0,8.431666260E0,1.199364407E1
2.921038167E0,-6.269562378E0,5.768105164E0,8.520731049E0,1.204912060E1
2.931064167E0,-6.243067474E0,5.703289948E0,8.517587585E0,1.200219588E1
2.941090167E0,-6.214476929E0,5.639372864E0,8.539142761E0,1.197243538E1
2.951115167E0,-6.158044281E0,5.590873718E0,8.510402527E0,1.189984578E1
2.961141167E0,-6.032305756E0,5.501509552E0,8.359665985E0,1.168500473E1
2.971167167E0,-5.883365479E0,5.410947876E0,8.177494812E0,1.143519863E1
2.981193167E0,-5.793701935E0,5.345084839E0,8.036338348E0,1.125698219E1
2.991219167E0,-5.695057068E0,5.253774719E0,7.870632935E0,1.104457725E1
3.001244167E0,-5.560187531E0,5.130880280E0,7.660320282E0,1.076671373E1
3.011270167E0,-5.444777527E0,5.016967163E0,7.489375763E0,1.053120654E1
3.021296167E0,-5.378016357E0,4.895719299E0,7.345973969E0,1.033704314E1
3.031322167E0,-5.277575226E0,4.743336182E0,7.195237427E0,1.010561626E1
3.041347167E0,-5.192701721E0,4.581672363E0,7.090155945E0,9.910912376E0
3.051373167E0,-5.114115143E0,4.381239166E0,6.964866486E0,9.688074911E0
3.061399167E0,-4.972509613E0,4.148024139E0,6.780150604E0,9.375627890E0
3.071425167E0,-4.829257507E0,3.898343353E0,6.591243439E0,9.053358440E0
3.081450167E0,-4.750221863E0,3.678600311E0,6.459517365E0,8.821681959E0
3.091476167E0,-4.717589722E0,3.499572601E0,6.420149231E0,8.701780124E0
3.101502167E0,-4.740342407E0,3.346141663E0,6.450685730E0,8.676338891E0
3.111528167E0,-4.781506805E0,3.194806366E0,6.478827209E0,8.662840011E0
3.121554167E0,-4.814737701E0,3.086431732E0,6.499633942E0,8.657540144E0
3.131579167E0,-4.886588287E0,3.018922119E0,6.570586395E0,8.727269987E0
3.141605167E0,-5.007536774E0,2.991978149E0,6.694678345E0,8.879531290E0
3.151631167E0,-5.131329346E0,3.003953247E0,6.845414886E0,9.067192561E0
3.161657167E0,-5.256618805E0,3.050207062E0,6.968608704E0,9.246475634E0
3.171683167E0,-5.354365540E0,3.115171967E0,7.067253571E0,9.397850804E0
3.181708167E0,-5.455854492E0,3.226839752E0,7.190597076E0,9.585589671E0
3.191734167E0,-5.563780060E0,3.355122986E0,7.316784668E0,9.785082354E0
3.201760167E0,-5.654940491E0,3.508104858E0,7.404502258E0,9.955491216E0
3.211786167E0,-5.749094696E0,3.694916382E0,7.523055725E0,1.016370328E1
3.221811167E0,-5.855523376E0,3.898343353E0,7.665559387E0,1.040408745E1
3.231837167E0,-5.908363495E0,4.084256744E0,7.704478455E0,1.053322840E1
3.241863167E0,-5.866300964E0,4.223766632E0,7.630083160E0,1.051055948E1
3.251889167E0,-5.789061584E0,4.360881500E0,7.527995453E0,1.044993957E1
3.261914167E0,-5.739514618E0,4.510719910E0,7.465425568E0,1.044132181E1
3.271940167E0,-5.702092438E0,4.668940887E0,7.435936890E0,1.046928959E1
3.281966167E0,-5.652395782E0,4.812941437E0,7.418423309E0,1.049509351E1
3.291992167E0,-5.574857025E0,4.928800507E0,7.357050934E0,1.046414372E1
3.302018167E0,-5.474415894E0,5.004542999E0,7.267986145E0,1.038452226E1
3.312043167E0,-5.402265930E0,5.064568176E0,7.201973419E0,1.032970228E1
3.322069167E0,-5.333409119E0,5.102888489E0,7.153174896E0,1.027874675E1
3.332095167E0,-5.292095032E0,5.140310669E0,7.148534546E0,1.027280924E1
3.342121167E0,-5.347629547E0,5.211113434E0,7.248975677E0,1.040675230E1
3.352146167E0,-5.429359589E0,5.296735382E0,7.408843231E0,1.060303302E1
3.362172167E0,-5.482050018E0,5.317392426E0,7.508386230E0,1.070996725E1
3.372198167E0,-5.481002197E0,5.296136627E0,7.558681641E0,1.073424969E1
3.382224167E0,-5.588478699E0,5.350623322E0,7.735014954E0,1.094032543E1
3.392250167E0,-5.718707886E0,5.437742157E0,7.976762238E0,1.122057910E1
3.402275167E0,-5.803282013E0,5.481600952E0,8.150251465E0,1.140844556E1
3.412301167E0,-5.913452911E0,5.534890137E0,8.326734467E0,1.161630066E1
3.422327167E0,-5.999823303E0,5.594915314E0,8.519982605E0,1.182755514E1
3.432353167E0,-6.030359802E0,5.599855042E0,8.602461090E0,1.190487096E1
3.442379167E0,-6.020779724E0,5.581143951E0,8.623716888E0,1.190661368E1
3.452404167E0,-6.007158051E0,5.552703094E0,8.600215759E0,1.186937954E1
3.462430167E0,-6.033652954E0,5.548960876E0,8.643475800E0,1.191241406E1
3.472456167E0,-6.115382996E0,5.567372589E0,8.755592651E0,1.204383450E1
3.482482167E0,-6.161786499E0,5.567222900E0,8.832832031E0,1.212355168E1
3.492507167E0,-6.157445526E0,5.486840057E0,8.806786194E0,1.206561363E1
3.502533167E0,-6.097420349E0,5.360802155E0,8.718170471E0,1.191315370E1
3.512559167E0,-6.073769531E0,5.234913940E0,8.678502960E0,1.181572740E1
3.522585167E0,-6.057154083E0,5.104984131E0,8.661139069E0,1.173734674E1
3.532610167E0,-6.030659180E0,4.928501129E0,8.613388367E0,1.161246885E1
3.542636167E0,-5.943091278E0,4.706512756E0,8.516839142E0,1.140211144E1
3.552662167E0,-5.852679291E0,4.481231232E0,8.381670227E0,1.116188533E1
3.562688167E0,-5.825885010E0,4.299509125E0,8.371491394E0,1.106835955E1
3.572714167E0,-5.811514893E0,4.121229858E0,8.344098358E0,1.097188308E1
3.582739167E0,-5.828429718E0,3.973337402E0,8.369096375E0,1.094530846E1
3.592765167E0,-5.911956024E0,3.884571991E0,8.476572876E0,1.104053492E1
3.602791167E0,-5.966442719E0,3.794609070E0,8.534352722E0,1.108299026E1
3.612817167E0,-5.929768982E0,3.690425720E0,8.461903381E0,1.097201946E1
3.622842167E0,-5.921685791E0,3.632645874E0,8.410859528E0,1.090894297E1
3.632868167E0,-5.996081085E0,3.660637665E0,8.509953461E0,1.103506069E1
3.642894167E0,-6.121669922E0,3.736978912E0,8.666827240E0,1.124961103E1
3.652920167E0,-6.228847046E0,3.839066620E0,8.785979462E0,1.143373968E1
3.662946167E0,-6.319259033E0,3.959865417E0,8.916058960E0,1.162366879E1
3.672971167E0,-6.324198761E0,4.070036316E0,8.931327209E0,1.167601350E1
3.682997167E0,-6.256389771E0,4.136348419E0,8.808881836E0,1.156927787E1
3.693023167E0,-6.148164825E0,4.192332001E0,8.632548523E0,1.139721336E1
3.703049167E0,-6.030359802E0,4.250860291E0,8.494535522E0,1.125131931E1
3.713074167E0,-5.972879333E0,4.343068542E0,8.414002991E0,1.119522122E1
3.723100167E0,-5.888454895E0,4.399800568E0,8.290659485E0,1.108003523E1
3.733126167E0,-5.764063568E0,4.425996094E0,8.116571503E0,1.089461349E1
3.743152167E0,-5.652545471E0,4.443060608E0,7.975864105E0,1.073808484E1
3.753178167E0,-5.553750916E0,4.464765472E0,7.854167175E0,1.060500929E1
3.763203167E0,-5.460943909E0,4.454436951E0,7.739206238E0,1.046705451E1
3.773229167E0,-5.341342621E0,4.400249634E0,7.574249268E0,1.025969735E1
3.783255167E0,-5.232219543E0,4.334685974E0,7.416177979E0,1.005809722E1
3.793281167E0,-5.151687012E0,4.265230408E0,7.303462372E0,9.903162733E0
3.803306167E0,-5.070256348E0,4.159849548E0,7.176825714E0,9.722071540E0
3.813332167E0,-5.014721832E0,4.071682892E0,7.102131042E0,9.600328222E0
3.823358167E0,-4.977299652E0,3.987258453E0,7.066205750E0,9.518561104E0
3.833384167E0,-4.984035645E0,3.923341370E0,7.054979095E0,9.487146507E0
3.843410167E0,-5.022505646E0,3.882925415E0,7.133865051E0,9.549591788E0
3.853435167E0,-5.077441406E0,3.862418060E0,7.221882019E0,9.636091760E0
3.863461167E0,-5.122048645E0,3.833079071E0,7.285050659E0,9.695351494E0
3.873487167E0,-5.118007050E0,3.782334595E0,7.315287781E0,9.696055201E0
3.883513167E0,-5.107528839E0,3.725303192E0,7.284451904E0,9.645101050E0
3.893538167E0,-5.117258606E0,3.692072296E0,7.318131866E0,9.662959562E0
3.903564167E0,-5.194348297E0,3.712879028E0,7.430697784E0,9.797040087E0
3.913590167E0,-5.266049194E0,3.737278290E0,7.549550629E0,9.934497362E0
3.923616167E0,-5.267546082E0,3.714525604E0,7.552544403E0,9.929031632E0
3.933642167E0,-5.217999115E0,3.656895447E0,7.438930664E0,9.794799053E0
3.943667167E0,-5.121749268E0,3.575464783E0,7.279512177E0,9.592057209E0
3.953693167E0,-5.048102417E0,3.515289917E0,7.149432678E0,9.431595243E0
3.963719167E0,-5.032834167E0,3.483855286E0,7.108867035E0,9.380973187E0
3.973745167E0,-5.050198059E0,3.461701355E0,7.118297424E0,9.389251031E0
3.983770167E0,-5.085524597E0,3.456462250E0,7.160210266E0,9.438130258E0
3.993796167E0,-5.115462341E0,3.442541199E0,7.188950500E0,9.471011254E0
4.003822167E0,-5.083428955E0,3.396586761E0,7.153025208E0,9.409772643E0
4.013848167E0,-5.041067047E0,3.337908783E0,7.077282715E0,9.308164300E0
4.023873167E0,-5.011278992E0,3.306025085E0,7.037166138E0,9.250104121E0
4.033899167E0,-4.983287201E0,3.291654968E0,7.016658783E0,9.214208823E0
4.043925167E0,-5.019362183E0,3.292104034E0,7.037016449E0,9.249407884E0
4.053951167E0,-5.060376892E0,3.306174774E0,7.098538513E0,9.323489419E0
4.063977167E0,-5.091661835E0,3.329376526E0,7.143894196E0,9.383229325E0
4.074002167E0,-5.130730591E0,3.376678162E0,7.204667816E0,9.467501790E0
4.084028167E0,-5.191204834E0,3.444487152E0,7.288792877E0,9.588514013E0
4.094054167E0,-5.286706238E0,3.536096649E0,7.420668640E0,9.773411146E0
4.104080167E0,-5.447172546E0,3.699257355E0,7.644453278E0,1.008929431E1
4.114105167E0,-5.634133759E0,3.897295532E0,7.920030212E0,1.047183147E1
4.124131167E0,-5.773643646E0,4.070036316E0,8.134234772E0,1.077338999E1
4.134157167E0,-5.835614777E0,4.202361145E0,8.232580261E0,1.093113063E1
4.144183167E0,-5.822142792E0,4.311035156E0,8.232879639E0,1.096643415E1
4.154209167E0,-5.815855865E0,4.413422241E0,8.229436798E0,1.100118654E1
4.164234167E0,-5.827531586E0,4.545747070E0,8.264164581E0,1.108694534E1
4.174260167E0,-5.850733337E0,4.681365051E0,8.310867462E0,1.119003026E1
4.184286167E0,-5.858816528E0,4.814588013E0,8.347690887E0,1.127785139E1
4.194312167E0,-5.871091003E0,4.938230896E0,8.400980072E0,1.137683173E1
4.204337167E0,-5.824837189E0,5.008734283E0,8.363108826E0,1.135595600E1
4.214363167E0,-5.798042908E0,5.075345764E0,8.338110809E0,1.135343684E1
4.224389167E0,-5.820196838E0,5.167853394E0,8.399782562E0,1.145153907E1
4.234415167E0,-5.759423218E0,5.170547791E0,8.346194000E0,1.138263917E1
4.244441167E0,-5.737418976E0,5.180127869E0,8.350085907E0,1.137873613E1
4.254466167E0,-5.775140533E0,5.205425262E0,8.415200500E0,1.145706332E1
4.264492167E0,-5.860912170E0,5.238057404E0,8.569828949E0,1.162882217E1
4.274518167E0,-5.932164001E0,5.242248688E0,8.710236969E0,1.177030030E1
4.284544167E0,-5.979465637E0,5.181475067E0,8.776249695E0,1.181627064E1
4.294569167E0,-5.999224548E0,5.071453857E0,8.807684326E0,1.180193385E1
4.304595167E0,-6.030659180E0,4.972359924E0,8.863368530E0,1.181746652E1
4.314621167E0,-6.090235291E0,4.890929260E0,8.943901062E0,1.187457457E1
4.324647167E0,-6.153852997E0,4.795577545E0,9.026529236E0,1.193087175E1
4.334673167E0,-6.180796967E0,4.688699799E0,9.062454529E0,1.192955318E1
4.344698167E0,-6.177952881E0,4.553231506E0,9.039103088E0,1.185767277E1
4.354724167E0,-6.127507782E0,4.399201813E0,8.956624603E0,1.170984426E1
4.364750167E0,-6.054759064E0,4.256997528E0,8.835526428E0,1.152599942E1
4.374776167E0,-5.971831512E0,4.106111298E0,8.698411560E0,1.132189407E1
4.384801167E0,-5.956712952E0,4.003724213E0,8.646619263E0,1.123727108E1
4.394827167E0,-5.921536102E0,3.907324677E0,8.585246887E0,1.113724562E1
4.404853167E0,-5.810916138E0,3.777544556E0,8.414302368E0,1.090124184E1
4.414879167E0,-5.703589325E0,3.652404785E0,8.243657227E0,1.066906164E1
4.424904167E0,-5.630241852E0,3.555406494E0,8.106991425E0,1.049113190E1
4.434930167E0,-5.520070953E0,3.445085907E0,7.955805817E0,1.027787169E1
4.444956167E0,-5.412744141E0,3.323688354E0,7.779472504E0,1.004315169E1
4.454982167E0,-5.357059937E0,3.247945862E0,7.680677948E0,9.911612241E0
4.465008167E0,-5.298531647E0,3.188669128E0,7.602390747E0,9.799918035E0
4.475033167E0,-5.211861877E0,3.107537842E0,7.473957825E0,9.627062960E0
4.485059167E0,-5.162015533E0,3.064726868E0,7.401508484E0,9.530020093E0
4.495085167E0,-5.161117401E0,3.044219513E0,7.388186188E0,9.512607446E0
4.505111167E0,-5.174589386E0,3.043171692E0,7.390730896E0,9.521563550E0
4.515136167E0,-5.198539581E0,3.061284027E0,7.413932648E0,9.558382236E0
4.525162167E0,-5.248385925E0,3.112627258E0,7.479945374E0,9.653164562E0
4.535188167E0,-5.320685577E0,3.179388428E0,7.580236816E0,9.791741213E0
4.545214167E0,-5.394182739E0,3.250939636E0,7.667205963E0,9.922291229E0
4.555240167E0,-5.455854492E0,3.354224854E0,7.754474487E0,1.005728826E1
4.565265167E0,-5.499264221E0,3.438649292E0,7.812553711E0,1.015392591E1
4.575291167E0,-5.539530487E0,3.535497894E0,7.864944763E0,1.024907310E1
4.585317167E0,-5.584886169E0,3.650907898E0,7.927364960E0,1.036162136E1
4.595343167E0,-5.561385040E0,3.727249146E0,7.907905426E0,1.036129133E1
4.605368167E0,-5.523214417E0,3.793561249E0,7.850574646E0,1.032126575E1
4.615394167E0,-5.506598969E0,3.888613586E0,7.840695190E0,1.034023447E1
4.625420167E0,-5.450016632E0,3.947890320E0,7.760162659E0,1.027174005E1
4.635446167E0,-5.441035309E0,4.030518494E0,7.752528534E0,1.029328146E1
4.645472167E0,-5.469027100E0,4.152664490E0,7.812104645E0,1.040114699E1
4.655497167E0,-5.394182739E0,4.186793518E0,7.711962891E0,1.030052518E1
4.665523167E0,-5.268444214E0,4.174519043E0,7.534432068E0,1.009706790E1
4.675549167E0,-5.195994873E0,4.183200989E0,7.430548096E0,9.985518426E0
4.685575167E0,-5.141508179E0,4.215384064E0,7.370223541E0,9.925964145E0
4.695600167E0,-5.107379150E0,4.230652313E0,7.334298248E0,9.888158149E0
4.705626167E0,-5.066065063E0,4.232897644E0,7.279063110E0,9.826861017E0
4.715652167E0,-5.019212494E0,4.212090912E0,7.217541046E0,9.748184583E0
4.725678167E0,-4.966072998E0,4.171076202E0,7.161108398E0,9.661326576E0
4.735704167E0,-4.981191559E0,4.170178070E0,7.200027466E0,9.697579594E0
4.745729167E0,-5.010231171E0,4.176165619E0,7.254364471E0,9.755438460E0
4.755755167E0,-5.024301910E0,4.139192505E0,7.276069336E0,9.763078882E0
4.765781167E0,-5.072651367E0,4.114793243E0,7.338489532E0,9.824293560E0
4.775807167E0,-5.106930084E0,4.083358612E0,7.380851440E0,9.860604466E0
4.785832167E0,-5.121150513E0,4.029320984E0,7.423662415E0,9.877872940E0
4.795858167E0,-5.156177673E0,3.983815613E0,7.477550354E0,9.918201164E0
4.805884167E0,-5.199737091E0,3.950584717E0,7.532037048E0,9.968749546E0
4.815910167E0,-5.242997131E0,3.913312225E0,7.580985260E0,1.001370905E1
4.825935167E0,-5.281916199E0,3.877835999E0,7.623646545E0,1.005267315E1
4.835961167E0,-5.335355072E0,3.851490784E0,7.677983551E0,1.011194474E1
4.845987167E0,-5.395529938E0,3.849993896E0,7.767048340E0,1.021083915E1
4.856012833E0,-5.465733948E0,3.842958527E0,7.857610016E0,1.031429169E1
4.866038833E0,-5.530698853E0,3.843706970E0,7.936495972E0,1.040916334E1
4.876063833E0,-5.533243561E0,3.806135101E0,7.909102936E0,1.037580638E1
4.886089833E0,-5.507197723E0,3.761677551E0,7.853418732E0,1.030318546E1
4.896115833E0,-5.485043793E0,3.723357239E0,7.797135773E0,1.023447218E1
4.906141833E0,-5.467530212E0,3.687881012E0,7.750582581E0,1.017673245E1
4.916166833E0,-5.445975037E0,3.666924591E0,7.711513824E0,1.012780458E1
4.926192833E0,-5.452112274E0,3.666026459E0,7.708520050E0,1.012850234E1
4.936218833E0,-5.459896088E0,3.668870544E0,7.740703125E0,1.015822628E1
4.946244833E0,-5.475763092E0,3.692072296E0,7.761958923E0,1.019133875E1
4.956270833E0,-5.521268463E0,3.738775177E0,7.841144257E0,1.029302621E1
4.966295833E0,-5.559289398E0,3.781286774E0,7.904312897E0,1.037699333E1
4.976321833E0,-5.589376831E0,3.830833740E0,7.954308929E0,1.044927993E1
4.986347833E0,-5.647755432E0,3.907474365E0,8.068671112E0,1.059570436E1
4.996373833E0,-5.677842865E0,3.970792694E0,8.141419830E0,1.069054774E1
5.006398833E0,-5.661227417E0,4.012256470E0,8.121511230E0,1.068207108E1
5.016424833E0,-5.660628662E0,4.067042542E0,8.119116211E0,1.070063549E1
5.026450833E0,-5.736520844E0,4.157005463E0,8.232280884E0,1.086088460E1
5.036476833E0,-5.827681274E0,4.270020447E0,8.371641083E0,1.105799792E1
5.046502833E0,-5.893394623E0,4.372557220E0,8.459508362E0,1.119886774E1
5.056527833E0,-5.933062134E0,4.453089752E0,8.514144745E0,1.129255929E1
5.066553833E0,-5.985602875E0,4.550986176E0,8.600365448E0,1.142388738E1
5.076579833E0,-6.025420074E0,4.644990692E0,8.654403076E0,1.152303424E1
5.086605833E0,-6.079008636E0,4.737498322E0,8.720565491E0,1.163814843E1
5.096630833E0,-6.120322723E0,4.839735718E0,8.796008606E0,1.175802532E1
5.106656833E0,-6.124214630E0,4.898413696E0,8.787775726E0,1.177817744E1
5.116682833E0,-6.071224823E0,4.910987549E0,8.712332611E0,1.169967132E1
5.126708833E0,-6.021677856E0,4.926704865E0,8.635691986E0,1.162360534E1
5.136734833E0,-6.001170502E0,4.955295410E0,8.602161713E0,1.160026664E1
5.146759833E0,-5.990093536E0,4.971162415E0,8.591982880E0,1.159378481E1
5.156785833E0,-5.989494781E0,4.987927551E0,8.596323853E0,1.160388955E1
5.166811833E0,-5.939798126E0,4.958738251E0,8.534652100E0,1.152000752E1
5.176837833E0,-5.849086761E0,4.883893890E0,8.404722290E0,1.134476056E1
5.186862833E0,-5.775589600E0,4.806504822E0,8.321495361E0,1.121192262E1
5.196888833E0,-5.739364929E0,4.720433807E0,8.281827850E0,1.112706060E1
5.206914833E0,-5.724845123E0,4.657414856E0,8.270152130E0,1.108425826E1
5.216940833E0,-5.707032166E0,4.575684814E0,8.258775787E0,1.103242880E1
5.226965833E0,-5.665418701E0,4.455634460E0,8.200696564E0,1.091792433E1
5.236991833E0,-5.642815704E0,4.345014496E0,8.160130920E0,1.083089362E1
5.247017833E0,-5.619314575E0,4.234544220E0,8.139473877E0,1.075914012E1
5.257043833E0,-5.603297882E0,4.122277679E0,8.118367767E0,1.069102500E1
5.267069833E0,-5.601351929E0,4.021387482E0,8.103698273E0,1.064033018E1
5.277094833E0,-5.570665741E0,3.903881836E0,8.052953796E0,1.054147404E1
5.287120833E0,-5.567073212E0,3.815266113E0,8.030350800E0,1.048976137E1
5.297146833E0,-5.588478699E0,3.757635956E0,8.046666870E0,1.049284375E1
5.307172833E0,-5.563630371E0,3.661835175E0,7.967631226E0,1.038490092E1
5.317197833E0,-5.496869202E0,3.575015717E0,7.865543518E0,1.024026773E1
5.327223833E0,-5.459447021E0,3.503464508E0,7.783663788E0,1.013238606E1
5.337249833E0,-5.418432312E0,3.445235596E0,7.714507599E0,1.003706553E1
5.347275833E0,-5.390889587E0,3.404220886E0,7.664361877E0,9.969596450E0
5.357301833E0,-5.386398926E0,3.390449524E0,7.644153900E0,9.946935720E0
5.367326833E0,-5.380411377E0,3.366499329E0,7.620802460E0,9.917599228E0
5.377352833E0,-5.338498535E0,3.348536682E0,7.558082886E0,9.840573227E0
5.387378833E0,-5.271887054E0,3.316952362E0,7.450007629E0,9.710694093E0
5.397404833E0,-5.182223511E0,3.279081116E0,7.307503967E0,9.539781324E0
5.407429833E0,-5.098996582E0,3.245999908E0,7.194339294E0,9.396531245E0
5.417455833E0,-5.031936035E0,3.238665161E0,7.112758942E0,9.295196181E0
5.427481833E0,-5.037324829E0,3.258873138E0,7.123835907E0,9.313642338E0
5.437507833E0,-5.050048370E0,3.305276642E0,7.144492950E0,9.352626462E0
5.447532833E0,-5.038971405E0,3.345542908E0,7.138804779E0,9.356624597E0
5.457558833E0,-5.035079498E0,3.376528473E0,7.145391083E0,9.370676806E0
5.467584833E0,-5.083728333E0,3.445385284E0,7.215894470E0,9.475447563E0
5.477610833E0,-5.122647400E0,3.499273224E0,7.290289764E0,9.572604365E0
5.487636833E0,-5.141657867E0,3.541485443E0,7.304809570E0,9.609318791E0
5.497661833E0,-5.137017517E0,3.580404510E0,7.297325134E0,9.615570682E0
5.507687833E0,-5.160518646E0,3.621568909E0,7.341483307E0,9.676987713E0
5.517713833E0,-5.224884796E0,3.706741791E0,7.432344360E0,9.812191321E0
5.527739833E0,-5.268893280E0,3.765868835E0,7.500303040E0,9.909467704E0
5.537764833E0,-5.271437988E0,3.804488525E0,7.514822845E0,9.936536308E0
5.547790833E0,-5.280269623E0,3.837719421E0,7.519612885E0,9.957605916E0
5.557816833E0,-5.308860168E0,3.888912964E0,7.553143158E0,1.001786464E1
5.567842833E0,-5.379662933E0,3.957919464E0,7.664062500E0,1.016581299E1
5.577868833E0,-5.413642273E0,4.012256470E0,7.705675964E0,1.023636492E1
5.587893833E0,-5.375172272E0,4.007616119E0,7.651638336E0,1.017354575E1
5.597919833E0,-5.331313477E0,3.992796936E0,7.597600708E0,1.010390357E1
5.607945833E0,-5.335654449E0,4.014801178E0,7.602390747E0,1.011850690E1
5.617971833E0,-5.364544373E0,4.048930206E0,7.652686157E0,1.018507622E1
5.627996833E0,-5.414540405E0,4.087100830E0,7.715405731E0,1.027371046E1
5.638022833E0,-5.427413635E0,4.095333710E0,7.741900635E0,1.030366937E1
5.648048833E0,-5.360053711E0,4.043691101E0,7.659571838E0,1.018580651E1
5.658074833E0,-5.317691803E0,3.974085846E0,7.589218140E0,1.008302714E1
5.668099833E0,-5.322182465E0,3.958817596E0,7.601342926E0,1.008852205E1
5.678125833E0,-5.347629547E0,3.944447479E0,7.643555145E0,1.012816582E1
5.688151833E0,-5.337899780E0,3.899540863E0,7.631879425E0,1.009679041E1
5.698177833E0,-5.313949585E0,3.827091522E0,7.596852264E0,1.002979830E1
5.708203833E0,-5.360203400E0,3.815715179E0,7.677384796E0,1.011106820E1
5.718228833E0,-5.453609161E0,3.818409576E0,7.813601532E0,1.026520694E1
5.728254833E0,-5.547314301E0,3.820804596E0,7.941585388E0,1.041345390E1
5.738280833E0,-5.647156677E0,3.826193390E0,8.066725159E0,1.056419373E1
5.748306833E0,-5.695057068E0,3.808829498E0,8.131390686E0,1.063298508E1
5.758331833E0,-5.711073761E0,3.766168213E0,8.165070648E0,1.065217185E1
5.768357833E0,-5.739065552E0,3.742218018E0,8.180338898E0,1.067047392E1
5.778383833E0,-5.760171661E0,3.719615021E0,8.211623840E0,1.069793810E1
5.788409833E0,-5.813610535E0,3.725602570E0,8.280330963E0,1.078156124E1
5.798435833E0,-5.817801819E0,3.708837433E0,8.273145905E0,1.077252228E1
5.808460833E0,-5.811814270E0,3.694467316E0,8.251890106E0,1.074802141E1
5.818486833E0,-5.841752014E0,3.726500702E0,8.285869446E0,1.080131967E1
5.828512833E0,-5.878575439E0,3.755839691E0,8.320746918E0,1.085812186E1
5.838538833E0,-5.912704468E0,3.802841949E0,8.370593262E0,1.093108012E1
5.848563833E0,-5.909860382E0,3.835923157E0,8.374784546E0,1.094430319E1
5.858590542E0,-5.863007812E0,3.855831757E0,8.314909058E0,1.088025789E1
5.868616542E0,-5.830375671E0,3.878584442E0,8.262218628E0,1.083055651E1
5.878642542E0,-5.764662323E0,3.891457672E0,8.177494812E0,1.073527810E1
5.888668542E0,-5.730233917E0,3.924538879E0,8.137677612E0,1.069856921E1
5.898693542E0,-5.725743256E0,3.992198181E0,8.153993683E0,1.073356395E1
5.908719542E0,-5.759572906E0,4.075275421E0,8.196205902E0,1.081472797E1
5.918745542E0,-5.765410767E0,4.135899353E0,8.228538666E0,1.086528754E1
5.928771542E0,-5.773194580E0,4.196822662E0,8.227640533E0,1.089206890E1
5.938796542E0,-5.741011505E0,4.240232391E0,8.213420105E0,1.088113292E1
5.948822542E0,-5.701194305E0,4.246219940E0,8.151898041E0,1.081607332E1
5.958848542E0,-5.700146484E0,4.279151459E0,8.148604889E0,1.082601352E1
5.968874542E0,-5.751789093E0,4.365072784E0,8.225993958E0,1.094549747E1
5.978900542E0,-5.766757965E0,4.406386871E0,8.256380768E0,1.099270513E1
5.988925542E0,-5.720953217E0,4.396058350E0,8.208181000E0,1.092835166E1
5.998951542E0,-5.684578857E0,4.381538544E0,8.143964539E0,1.085525104E1
6.008977542E0,-5.685926056E0,4.409530334E0,8.143216095E0,1.086672357E1
6.019003542E0,-5.741310883E0,4.470154266E0,8.220006409E0,1.097786114E1
6.029028542E0,-5.755381622E0,4.485721893E0,8.259224854E0,1.102093071E1
6.039054542E0,-5.707331543E0,4.464765472E0,8.205935669E0,1.094738070E1
6.049080542E0,-5.670508118E0,4.431235199E0,8.146958313E0,1.087030071E1
6.059106542E0,-5.648803253E0,4.427343292E0,8.116421814E0,1.083451198E1
6.069131542E0,-5.616620178E0,4.411625977E0,8.083490295E0,1.078664365E1
6.079157542E0,-5.576802979E0,4.372856598E0,8.032596130E0,1.071191892E1
6.089183542E0,-5.540428619E0,4.325105896E0,7.969876556E0,1.062646802E1
6.099209542E0,-5.455255737E0,4.248465271E0,7.868237915E0,1.047465704E1
6.109235542E0,-5.369633789E0,4.149071960E0,7.736661530E0,1.029095218E1
6.119260542E0,-5.311704254E0,4.073030090E0,7.657775574E0,1.017080641E1
6.129286542E0,-5.291496277E0,4.021836548E0,7.624544678E0,1.011478045E1
6.139312542E0,-5.295088806E0,3.981420593E0,7.622898102E0,1.009941834E1
6.149338542E0,-5.288801880E0,3.919150085E0,7.608677673E0,1.006097106E1
6.159363542E0,-5.242997131E0,3.835324402E0,7.542515259E0,9.954309048E0
6.169389542E0,-5.178630981E0,3.728446655E0,7.458689575E0,9.815884244E0
6.179415542E0,-5.121898956E0,3.631897430E0,7.360793152E0,9.675009235E0
6.189441542E0,-5.128185883E0,3.583997040E0,7.359445953E0,9.659439423E0
6.199466542E0,-5.144052887E0,3.535497894E0,7.376061401E0,9.662675989E0
6.209492542E0,-5.140460358E0,3.476670227E0,7.344926147E0,9.615586756E0
6.219518542E0,-5.131628723E0,3.440146179E0,7.349865875E0,9.601497147E0
6.229544542E0,-5.122497711E0,3.399131470E0,7.336842957E0,9.572008259E0
6.239570542E0,-5.073250122E0,3.335064697E0,7.251819763E0,9.457769992E0
6.249595542E0,-5.042414246E0,3.289858704E0,7.196135559E0,9.382615771E0
6.259621542E0,-5.026098175E0,3.271746368E0,7.169490967E0,9.347063062E0
6.269647542E0,-5.023703156E0,3.265758820E0,7.155569916E0,9.333003530E0
6.279673542E0,-5.006788330E0,3.265309753E0,7.140002289E0,9.311810235E0
6.289698542E0,-4.975204010E0,3.245850220E0,7.087162170E0,9.247489725E0
6.299724542E0,-4.968617706E0,3.268303528E0,7.066505127E0,9.236041607E0
6.309750542E0,-4.972958679E0,3.296145630E0,7.077282715E0,9.256501751E0
6.319776542E0,-4.962779846E0,3.310066681E0,7.059170380E0,9.242164881E0
6.329802542E0,-4.977299652E0,3.345093842E0,7.070696411E0,9.271349005E0
6.339827542E0,-4.982987823E0,3.388653259E0,7.085216217E0,9.301259453E0
6.349853542E0,-5.012626190E0,3.454516296E0,7.123087463E0,9.370084267E0
6.359879542E0,-5.073250122E0,3.535797272E0,7.224277039E0,9.509464121E0
6.369905542E0,-5.140011292E0,3.607947235E0,7.296876068E0,9.627117932E0
6.379930542E0,-5.165009308E0,3.660188599E0,7.341333618E0,9.693785691E0
6.389956542E0,-5.215155029E0,3.732937317E0,7.409441986E0,9.799617010E0
6.399982542E0,-5.293891296E0,3.826642456E0,7.541916504E0,9.977423620E0
6.410008542E0,-5.366041260E0,3.886068878E0,7.623347168E0,1.010006694E1
6.420033542E0,-5.399421844E0,3.924538879E0,7.672145691E0,1.016944350E1
6.430059542E0,-5.455255737E0,3.971840515E0,7.743846588E0,1.027144061E1
6.440085542E0,-5.510041809E0,4.025429077E0,7.831115112E0,1.038705944E1
6.450111542E0,-5.562881927E0,4.078269196E0,7.914042664E0,1.049809536E1
6.460137542E0,-5.615722046E0,4.112547913E0,7.991282043E0,1.059763998E1
6.470162542E0,-5.643414459E0,4.132755890E0,8.031548309E0,1.065051953E1
6.480188542E0,-5.662873993E0,4.153712311E0,8.084388428E0,1.070881899E1
6.490214542E0,-5.712720337E0,4.195026398E0,8.161777496E0,1.080962682E1
6.500240542E0,-5.751190338E0,4.224664764E0,8.232580261E0,1.089492361E1
6.510265542E0,-5.737718353E0,4.203558655E0,8.207133179E0,1.086040295E1
6.520291542E0,-5.700595551E0,4.165837097E0,8.168214111E0,1.079679166E1
6.530317542E0,-5.661826172E0,4.130360870E0,8.120613098E0,1.072662639E1
6.540343542E0,-5.635031891E0,4.084705811E0,8.072413330E0,1.065843623E1
6.550369542E0,-5.610333252E0,4.066593475E0,8.062084808E0,1.063062713E1
6.560394542E0,-5.610632629E0,4.039200439E0,8.042774963E0,1.060568564E1
6.570420542E0,-5.593867493E0,4.011657715E0,8.039481812E0,1.058385653E1
6.580446542E0,-5.586682434E0,3.971690826E0,8.019124146E0,1.054948817E1
6.590472542E0,-5.614674225E0,3.944896545E0,8.039332123E0,1.056965640E1
6.600497542E0,-5.643115082E0,3.927382965E0,8.081843719E0,1.061062122E1
6.610523542E0,-5.672603760E0,3.896547089E0,8.121810608E0,1.064543659E1
6.620549542E0,-5.737568665E0,3.896696777E0,8.208779755E0,1.074653456E1
6.630575542E0,-5.801785126E0,3.884122925E0,8.307873688E0,1.085209135E1
6.640600542E0,-5.820496216E0,3.868255920E0,8.322992249E0,1.086801638E1
6.650626542E0,-5.801036682E0,3.801494751E0,8.277636566E0,1.079919701E1
6.660652542E0,-5.736520844E0,3.720962219E0,8.175997925E0,1.065833820E1
6.670678542E0,-5.722001038E0,3.666475525E0,8.139174500E0,1.060332496E1
6.680704542E0,-5.763315125E0,3.680396576E0,8.206684113E0,1.068226494E1
6.690729542E0,-5.838758240E0,3.711980896E0,8.298592987E0,1.080446878E1
6.700755542E0,-5.891149292E0,3.726351013E0,8.374335480E0,1.089590871E1
6.710781542E0,-5.879174194E0,3.731141052E0,8.384065247E0,1.089856196E1
6.720807542E0,-5.823489990E0,3.704346771E0,8.302784271E0,1.079682580E1
6.730832542E0,-5.779780884E0,3.693269806E0,8.216413879E0,1.070306339E1
6.740858542E0,-5.764812012E0,3.707639923E0,8.203840027E0,1.069030601E1
6.750884542E0,-5.755531311E0,3.729644165E0,8.209079132E0,1.069697932E1
6.760910542E0,-5.766757965E0,3.765868835E0,8.222102051E0,1.072568075E1
6.770936542E0,-5.783672791E0,3.814966736E0,8.257727966E0,1.077937444E1
6.780961542E0,-5.736670532E0,3.833079071E0,8.164621582E0,1.068938396E1
6.790987542E0,-5.657634888E0,3.833378448E0,8.079149323E0,1.058188436E1
6.801013542E0,-5.559588776E0,3.803590393E0,7.930658112E0,1.040536714E1
6.811039542E0,-5.492079163E0,3.791615295E0,7.811356201E0,1.027407250E1
6.821064542E0,-5.516328735E0,3.850892029E0,7.849826202E0,1.033823116E1
6.831090542E0,-5.557044067E0,3.918551331E0,7.916587372E0,1.043590623E1
6.841116542E0,-5.556894379E0,3.963457947E0,7.923772430E0,1.045821417E1
6.851142542E0,-5.521118774E0,3.965403900E0,7.870782623E0,1.039982691E1
6.861167792E0,-5.461243286E0,3.944148102E0,7.778274994E0,1.028994871E1
6.871193792E0,-5.435646515E0,3.942950592E0,7.736511841E0,1.024435102E1
6.881219792E0,-5.446873169E0,3.970343628E0,7.744894409E0,1.026720241E1
6.891245792E0,-5.472469940E0,4.003873901E0,7.789651337E0,1.032751671E1
6.901271792E0,-5.491630096E0,4.028273163E0,7.831264801E0,1.037852081E1
6.911296792E0,-5.492079163E0,4.035009155E0,7.834108887E0,1.038352033E1
6.921322792E0,-5.459447021E0,4.014651489E0,7.803722076E0,1.033542774E1
6.931348792E0,-5.410199432E0,3.990401917E0,7.733218689E0,1.024676713E1
6.941374792E0,-5.312303009E0,3.927083588E0,7.597900085E0,1.006829849E1
6.951399792E0,-5.280269623E0,3.906127167E0,7.544461212E0,1.000289817E1
6.961425792E0,-5.335355072E0,3.954027557E0,7.659871216E0,1.013774998E1
6.971451792E0,-5.350024567E0,3.969146118E0,7.697443085E0,1.017976001E1
6.981477792E0,-5.315296783E0,3.941154327E0,7.636519775E0,1.010452926E1
6.991502792E0,-5.241200867E0,3.881129150E0,7.535330200E0,9.965668630E0
7.001528792E0,-5.138215027E0,3.799848175E0,7.401209106E0,9.778445482E0
7.011554792E0,-5.092709656E0,3.753294983E0,7.324867859E0,9.678667471E0
7.021580792E0,-5.072351990E0,3.734733582E0,7.297474823E0,9.640027408E0
7.031606792E0,-5.045408020E0,3.685186615E0,7.255711670E0,9.575076726E0
7.041631792E0,-4.987179108E0,3.633993073E0,7.172484741E0,9.461627686E0
7.051657792E0,-4.921765137E0,3.561992798E0,7.091802521E0,9.338373935E0
7.061683792E0,-4.889282684E0,3.518882446E0,7.045099640E0,9.269360699E0
7.071709792E0,-4.885989532E0,3.489393768E0,7.025191040E0,9.241324133E0
7.081734792E0,-4.894372101E0,3.474125519E0,7.039411469E0,9.250823758E0
7.091760792E0,-4.930896149E0,3.470982056E0,7.088958435E0,9.306706450E0
7.101786792E0,-4.975503387E0,3.475472717E0,7.164251862E0,9.389411553E0
7.111812792E0,-5.055586853E0,3.500321045E0,7.278314667E0,9.528119974E0
7.121838792E0,-5.151986389E0,3.541485443E0,7.399263153E0,9.686804329E0
7.131863792E0,-5.277724915E0,3.612288208E0,7.598648529E0,9.931891353E0
7.141889792E0,-5.326822815E0,3.633993073E0,7.693251801E0,1.003828024E1
7.151915792E0,-5.324727173E0,3.617826691E0,7.667505341E0,1.001159466E1
7.161941792E0,-5.364394684E0,3.627406769E0,7.711813202E0,1.007009797E1
7.171966792E0,-5.393733673E0,3.659290466E0,7.772137756E0,1.014341634E1
7.181992792E0,-5.441184998E0,3.686533813E0,7.843988342E0,1.023353208E1
7.192018792E0,-5.509443054E0,3.745211792E0,7.956703949E0,1.037736536E1
7.202044792E0,-5.564977570E0,3.802991638E0,8.046816559E0,1.049680797E1
7.212069792E0,-5.564678192E0,3.815715179E0,8.038433990E0,1.049484382E1
7.222095792E0,-5.504353638E0,3.798500977E0,7.963889008E0,1.039952147E1
7.232121792E0,-5.453908539E0,3.797752533E0,7.900121613E0,1.032375727E1
7.242147792E0,-5.456602936E0,3.829336853E0,7.889194336E0,1.032849087E1
7.252172792E0,-5.512736206E0,3.895648956E0,7.971223755E0,1.044541763E1
7.262198792E0,-5.526058502E0,3.938160553E0,7.984546051E0,1.047852121E1
7.272224792E0,-5.458399200E0,3.920646973E0,7.895930328E0,1.036876609E1
7.282250792E0,-5.375771027E0,3.883374481E0,7.775730286E0,1.021966208E1
7.292276792E0,-5.320535889E0,3.882775726E0,7.701334991E0,1.013383492E1
7.302301792E0,-5.294040985E0,3.885769501E0,7.672145691E0,1.009890559E1
7.312327792E0,-5.322631531E0,3.933669891E0,7.696395264E0,1.015079629E1
7.322353792E0,-5.389392700E0,3.992347870E0,7.809260559E0,1.029412190E1
7.332379792E0,-5.456453247E0,4.052522736E0,7.907606049E0,1.042717872E1
7.342404792E0,-5.464386749E0,4.079167328E0,7.920778656E0,1.045169188E1
7.352430792E0,-5.451962585E0,4.079167328E0,7.905061340E0,1.043328792E1
7.362456792E0,-5.477559357E0,4.089495850E0,7.942333832E0,1.047894553E1
7.372482792E0,-5.498066711E0,4.111051025E0,7.973169708E0,1.052145015E1
7.382508792E0,-5.556445312E0,4.154011688E0,8.083490295E0,1.065235716E1
7.392533792E0,-5.652096405E0,4.227508850E0,8.219856720E0,1.083439289E1
7.402559792E0,-5.706583099E0,4.259093170E0,8.298892365E0,1.093510767E1
7.412585792E0,-5.730533295E0,4.260140991E0,8.337811432E0,1.097756405E1
7.422611792E0,-5.738317108E0,4.265829163E0,8.359516296E0,1.100032247E1
7.432636792E0,-5.765710144E0,4.277953949E0,8.407566376E0,1.105583447E1
7.442662792E0,-5.828729095E0,4.299808502E0,8.487051086E0,1.115761947E1
7.452688792E0,-5.820196838E0,4.266727295E0,8.482111359E0,1.113669009E1
7.462714792E0,-5.784121857E0,4.240980835E0,8.423134003E0,1.106305430E1
7.472739792E0,-5.763764191E0,4.198319550E0,8.382718048E0,1.100530902E1
7.482765792E0,-5.771398315E0,4.177512817E0,8.408314819E0,1.102090786E1
7.492791792E0,-5.820496216E0,4.182452545E0,8.465346222E0,1.109203192E1
7.502817792E0,-5.799988861E0,4.140090637E0,8.430768127E0,1.103893439E1
7.512843792E0,-5.740113373E0,4.069736938E0,8.342302094E0,1.091355416E1
7.522868792E0,-5.711672516E0,4.011208649E0,8.305179291E0,1.084845615E1
7.532894792E0,-5.669460297E0,3.952530670E0,8.238567810E0,1.075357049E1
7.542920792E0,-5.627547455E0,3.883973236E0,8.163873138E0,1.064910151E1
7.552946792E0,-5.575755157E0,3.820205841E0,8.100854187E0,1.055020648E1
7.562971792E0,-5.517226868E0,3.751648407E0,8.004304962E0,1.042034337E1
7.572997792E0,-5.442831573E0,3.661685486E0,7.887248383E0,1.025870573E1
7.583023792E0,-5.418132935E0,3.615581360E0,7.854616241E0,1.020409670E1
7.593049792E0,-5.436095581E0,3.605701904E0,7.872878265E0,1.022420821E1
7.603075792E0,-5.455704803E0,3.599564667E0,7.883057098E0,1.024032079E1
7.613100792E0,-5.449866943E0,3.585643616E0,7.874225464E0,1.022552280E1
7.623126792E0,-5.435945892E0,3.562591553E0,7.857909393E0,1.019746568E1
7.633152792E0,-5.412893829E0,3.547622681E0,7.830815735E0,1.015907089E1
7.643178792E0,-5.397326202E0,3.534749451E0,7.793992310E0,1.011789998E1
7.653203792E0,-5.381459198E0,3.524121552E0,7.765850830E0,1.008404556E1
7.663229792E0,-5.350323944E0,3.522025909E0,7.738008728E0,1.004526813E1
7.673255792E0,-5.338498535E0,3.522025909E0,7.703131256E0,1.001211587E1
7.683281792E0,-5.313350830E0,3.518283691E0,7.657625885E0,9.962391850E0
7.693306792E0,-5.250631256E0,3.511697388E0,7.592511292E0,9.876607456E0
7.703332792E0,-5.237458649E0,3.523971863E0,7.563022614E0,9.851327923E0
7.713358792E0,-5.257516937E0,3.553460541E0,7.578290863E0,9.884283412E0
7.723384792E0,-5.278772736E0,3.604953461E0,7.616311798E0,9.943306113E0
7.733410792E0,-5.316194916E0,3.638633423E0,7.659871216E0,1.000875660E1
7.743435792E0,-5.275629272E0,3.648961945E0,7.610473938E0,9.953215614E0
7.753461792E0,-5.140460358E0,3.580554199E0,7.427853699E0,9.716877669E0
7.763487792E0,-5.094655609E0,3.565884705E0,7.340734863E0,9.620677618E0
7.773513792E0,-5.143903198E0,3.611839142E0,7.415429535E0,9.720787894E0
7.783538792E0,-5.154082031E0,3.633843384E0,7.438182220E0,9.751714417E0
7.793564792E0,-5.127287750E0,3.634591827E0,7.394622803E0,9.704626928E0
7.803590792E0,-5.121599579E0,3.628155212E0,7.380102997E0,9.688148055E0
7.813616792E0,-5.114264832E0,3.629352722E0,7.378007355E0,9.683124417E0
7.823641792E0,-5.132676544E0,3.650758209E0,7.407046967E0,9.723001017E0
7.833667792E0,-5.145100708E0,3.667822723E0,7.429200897E0,9.752846292E0
7.843693792E0,-5.165608063E0,3.674858093E0,7.447612610E0,9.780338555E0
7.853719792E0,-5.169050903E0,3.669918365E0,7.456444244E0,9.787029622E0
7.863748917E0,-5.133275299E0,3.638783112E0,7.404352570E0,9.716773889E0
7.873773917E0,-5.098547516E0,3.612288208E0,7.351662140E0,9.648354735E0
7.883799917E0,-5.078189850E0,3.579356689E0,7.316485291E0,9.598477143E0
7.893825917E0,-5.073100433E0,3.551364899E0,7.290439453E0,9.565513477E0
7.903851917E0,-5.115013275E0,3.568579102E0,7.336693268E0,9.629391762E0
7.913876917E0,-5.213059387E0,3.616030426E0,7.479496307E0,9.807880975E0
7.923902917E0,-5.240602112E0,3.620221710E0,7.520810394E0,9.855582414E0
7.933928917E0,-5.200784912E0,3.573668518E0,7.450456696E0,9.763635355E0
7.943954917E0,-5.149291992E0,3.535348206E0,7.400011597E0,9.683701079E0
7.953979917E0,-5.095404053E0,3.473975830E0,7.293133850E0,9.550992194E0
7.964005917E0,-5.059329071E0,3.419339447E0,7.227570190E0,9.461842514E0
7.974031917E0,-5.106930084E0,3.431464233E0,7.305258636E0,9.551046300E0
7.984057917E0,-5.182223511E0,3.462449799E0,7.420369263E0,9.690504585E0
7.994082917E0,-5.262606354E0,3.496279449E0,7.541766815E0,9.838558955E0
8.004108917E0,-5.283712463E0,3.495680695E0,7.581134949E0,9.879828340E0
8.014134917E0,-5.317841492E0,3.490740967E0,7.599995728E0,9.910834762E0
8.024160917E0,-5.352868652E0,3.501967621E0,7.654033356E0,9.975029155E0
8.034186917E0,-5.387297058E0,3.511847076E0,7.724387054E0,1.005097980E1
8.044211917E0,-5.435646515E0,3.534749451E0,7.796986084E0,1.014069518E1
8.054237917E0,-5.513634338E0,3.570974121E0,7.907007294E0,1.027972685E1
8.064263917E0,-5.602699127E0,3.620521088E0,8.045469360E0,1.045121944E1
8.074289917E0,-5.649551697E0,3.651506653E0,8.123756561E0,1.054733881E1
8.084314917E0,-5.658982086E0,3.656147003E0,8.120313721E0,1.055134987E1
8.094340917E0,-5.666915588E0,3.660637665E0,8.131091309E0,1.056545533E1
8.104366917E0,-5.742807770E0,3.720363464E0,8.237220612E0,1.070853626E1
8.114392917E0,-5.844745789E0,3.800297241E0,8.398435364E0,1.091499102E1
8.124417917E0,-5.879174194E0,3.843407593E0,8.441695404E0,1.098174360E1
8.134443917E0,-5.822142792E0,3.828738098E0,8.351882172E0,1.087706385E1
8.144469917E0,-5.744753723E0,3.804787903E0,8.241411896E0,1.074241483E1
8.154495917E0,-5.723348236E0,3.820505219E0,8.216563568E0,1.071750400E1
8.164521917E0,-5.765111389E0,3.877087555E0,8.274343414E0,1.080430822E1
8.174546917E0,-5.823639679E0,3.951632538E0,8.364755402E0,1.093157407E1
8.184572917E0,-5.813909912E0,3.976331177E0,8.366252289E0,1.093649557E1
8.194598917E0,-5.733976135E0,3.958817596E0,8.242759094E0,1.079322920E1
8.204624917E0,-5.691913605E0,3.967798920E0,8.190517731E0,1.073433228E1
8.214649917E0,-5.677094421E0,3.995491333E0,8.169860687E0,1.072100628E1
8.224675917E0,-5.673950958E0,4.024381256E0,8.203241272E0,1.075558140E1
8.234701917E0,-5.673501892E0,4.049528961E0,8.198151855E0,1.076090156E1
8.244727917E0,-5.630241852E0,4.045038300E0,8.119265900E0,1.067634942E1
8.254752917E0,-5.605692902E0,4.051025848E0,8.103548584E0,1.065373657E1
8.264778917E0,-5.567971344E0,4.040248260E0,8.061336365E0,1.059769102E1
8.274804917E0,-5.498815155E0,4.008813629E0,7.956703949E0,1.046979907E1
8.284830917E0,-5.438191223E0,3.973487091E0,7.869734802E0,1.035834202E1
8.294856917E0,-5.389243011E0,3.942800903E0,7.804171143E0,1.027106160E1
8.304881917E0,-5.390141144E0,3.942651215E0,7.784861298E0,1.025681167E1
8.314907917E0,-5.414540405E0,3.965852966E0,7.839497681E0,1.032002720E1
8.324933917E0,-5.407804413E0,3.952380981E0,7.821984100E0,1.029801434E1
8.334959917E0,-5.400170288E0,3.939507751E0,7.817343750E0,1.028554441E1
8.344984917E0,-5.413342896E0,3.937861176E0,7.826923828E0,1.029911494E1
8.355010917E0,-5.442831573E0,3.956422577E0,7.886200562E0,1.036676683E1
8.365036917E0,-5.475763092E0,3.985611877E0,7.939789124E0,1.043596353E1
8.375062917E0,-5.456004181E0,3.953728180E0,7.894882507E0,1.037926384E1
8.385087917E0,-5.369933167E0,3.894002380E0,7.777077484E0,1.022166185E1
8.395113917E0,-5.390440521E0,3.885470123E0,7.799979858E0,1.024662934E1
8.405139917E0,-5.478906555E0,3.943399658E0,7.943381653E0,1.042430477E1
8.415165917E0,-5.594615936E0,4.024830322E0,8.115224304E0,1.064687053E1
8.425191917E0,-5.639223175E0,4.043242035E0,8.183931427E0,1.072964947E1
8.435216917E0,-5.527555389E0,3.963907013E0,8.042625275E0,1.053329240E1
8.445242917E0,-5.390141144E0,3.865711212E0,7.816595306E0,1.025165874E1
8.455268917E0,-5.327870636E0,3.809877319E0,7.713609467E0,1.011934492E1
8.465294917E0,-5.295986938E0,3.786825256E0,7.675887909E0,1.006512684E1
8.475319917E0,-5.290598145E0,3.777245178E0,7.673492889E0,1.005686348E1
8.485345917E0,-5.272785187E0,3.745062103E0,7.628586273E0,1.000115405E1
8.495371917E0,-5.206024017E0,3.707190857E0,7.549999695E0,9.891837317E0
8.505397917E0,-5.179379425E0,3.686084747E0,7.500752106E0,9.832317842E0
8.515422917E0,-5.184019775E0,3.679797821E0,7.517217865E0,9.844975239E0
8.525448917E0,-5.200635223E0,3.684887238E0,7.520960083E0,9.858490820E0
8.535474917E0,-5.185217285E0,3.681594086E0,7.509434052E0,9.840336025E0
8.545500917E0,-5.130131836E0,3.646417236E0,7.424410858E0,9.733267073E0
8.555526917E0,-5.046455841E0,3.582350464E0,7.287146301E0,9.560462992E0
8.565551917E0,-4.992867279E0,3.550167389E0,7.215744781E0,9.465695162E0
8.575577917E0,-5.009632416E0,3.574267273E0,7.246281281E0,9.506860464E0
8.585603917E0,-5.023104401E0,3.603456573E0,7.257507935E0,9.533514489E0
8.595629917E0,-4.998705139E0,3.603456573E0,7.234605560E0,9.503234710E0
8.605654917E0,-4.961881714E0,3.586092682E0,7.178621979E0,9.434667158E0
8.615680917E0,-4.922513580E0,3.570974121E0,7.107370148E0,9.354020875E0
8.625706917E0,-4.887037354E0,3.576362915E0,7.059170380E0,9.300827503E0
8.635732917E0,-4.899461517E0,3.611988831E0,7.078629913E0,9.335854965E0
8.645757917E0,-4.923860779E0,3.649111633E0,7.127877502E0,9.400375438E0
8.655783917E0,-4.902455292E0,3.656895447E0,7.084168396E0,9.359080834E0
8.665809917E0,-4.878056030E0,3.662882996E0,7.055428162E0,9.326907795E0
8.675835917E0,-4.911885681E0,3.701951752E0,7.104975128E0,9.397432590E0
8.685860917E0,-4.972359924E0,3.772305450E0,7.202422485E0,9.530453362E0
8.695886917E0,-5.058730316E0,3.864962769E0,7.327861633E0,9.707020435E0
8.705912917E0,-5.060376892E0,3.876039734E0,7.318730621E0,9.705406546E0
8.715938917E0,-4.967420197E0,3.816014557E0,7.184310150E0,9.531607569E0
8.725964917E0,-4.872816925E0,3.750899963E0,7.058122559E0,9.361126501E0
8.735989917E0,-4.864584045E0,3.738326111E0,7.026538239E0,9.327995479E0
8.746015917E0,-4.962330780E0,3.806434479E0,7.160509644E0,9.507185102E0
8.756041917E0,-5.118605804E0,3.938459930E0,7.413034515E0,9.831819401E0
8.766067917E0,-5.270240479E0,4.050127716E0,7.640261993E0,1.012682441E1
8.776092917E0,-5.366490326E0,4.109853516E0,7.779771881E0,1.030606447E1
8.786118917E0,-5.394482117E0,4.109853516E0,7.815397797E0,1.034754927E1
8.796144917E0,-5.366939392E0,4.086352386E0,7.783514099E0,1.029977699E1
8.806170917E0,-5.408552856E0,4.088747406E0,7.836354218E0,1.036237168E1
8.816195917E0,-5.456303558E0,4.101321259E0,7.916737061E0,1.045307659E1
8.826221917E0,-5.547463989E0,4.155209198E0,8.041278076E0,1.061613269E1
8.836247917E0,-5.640420685E0,4.207749939E0,8.173453217E0,1.078539951E1
8.846273917E0,-5.699248352E0,4.222120056E0,8.270152130E0,1.089509733E1
8.856296208E0,-5.765410767E0,4.255201263E0,8.383466492E0,1.102856335E1
8.866321208E0,-5.830525360E0,4.279600525E0,8.464448090E0,1.113359278E1
8.876347208E0,-5.862558746E0,4.291575623E0,8.510701904E0,1.119014134E1
8.886373208E0,-5.861660614E0,4.262835388E0,8.502618713E0,1.117252683E1
8.896399208E0,-5.815556488E0,4.206851807E0,8.445138245E0,1.108326032E1
8.906424208E0,-5.751340027E0,4.152963867E0,8.336913300E0,1.094664991E1
8.916450208E0,-5.718857574E0,4.101321259E0,8.289012909E0,1.087354142E1
8.926476208E0,-5.702840881E0,4.068539429E0,8.275091858E0,1.084216549E1
8.936502208E0,-5.721701660E0,4.064348145E0,8.294102325E0,1.086503240E1
8.946527208E0,-5.682932281E0,4.022285614E0,8.233179016E0,1.078238089E1
8.956553208E0,-5.625451813E0,3.966751099E0,8.137228546E0,1.065811009E1
8.966579208E0,-5.624853058E0,3.946692810E0,8.120463409E0,1.063754117E1
8.976605208E0,-5.617218933E0,3.930077362E0,8.133486328E0,1.063730494E1
8.986630208E0,-5.605094147E0,3.912713470E0,8.116122437E0,1.061121343E1
8.996656208E0,-5.613027649E0,3.904630280E0,8.116571503E0,1.061277296E1
9.006682208E0,-5.614823914E0,3.907025299E0,8.119116211E0,1.061655040E1
9.016708208E0,-5.650300140E0,3.926484833E0,8.168363800E0,1.068013773E1
9.026734208E0,-5.656287689E0,3.940256195E0,8.190218353E0,1.070508692E1
9.036759208E0,-5.660628662E0,3.942501526E0,8.191565552E0,1.070923813E1
9.046785208E0,-5.632936249E0,3.936663666E0,8.160430298E0,1.066864163E1
9.056811208E0,-5.606141968E0,3.929777985E0,8.112529907E0,1.061532497E1
9.066837208E0,-5.614225159E0,3.949836273E0,8.137527924E0,1.064613035E1
9.076862208E0,-5.595364380E0,3.971092072E0,8.126151581E0,1.063541322E1
9.086888208E0,-5.555846558E0,3.953279114E0,8.057145081E0,1.055525621E1
9.096914208E0,-5.529950409E0,3.964056702E0,8.013585663E0,1.051245225E1
9.106940208E0,-5.477409668E0,3.952830048E0,7.941585388E0,1.042572110E1
9.116965208E0,-5.392536163E0,3.912563782E0,7.822433167E0,1.027511860E1
9.126991208E0,-5.361999664E0,3.908671875E0,7.773784332E0,1.022059094E1
9.137017208E0,-5.386847992E0,3.951931915E0,7.788902893E0,1.026172039E1
9.147043208E0,-5.380112000E0,3.963308258E0,7.804320831E0,1.027428056E1
9.157069208E0,-5.331163788E0,3.944297791E0,7.743547211E0,1.019516139E1
9.167094208E0,-5.284311218E0,3.910318451E0,7.645201721E0,1.008283912E1
9.177120208E0,-5.221891022E0,3.873644714E0,7.560627594E0,9.971778118E0
9.187146208E0,-5.177882538E0,3.837569733E0,7.490273895E0,9.881377032E0
9.197172208E0,-5.139412537E0,3.801045685E0,7.416477356E0,9.791100341E0
9.207197208E0,-5.082680511E0,3.750001831E0,7.346423035E0,9.688451183E0
9.217223208E0,-5.053341522E0,3.735631714E0,7.300318909E0,9.632541773E0
9.227249208E0,-5.071004791E0,3.721261597E0,7.325167236E0,9.655099818E0
9.237275208E0,-5.109774170E0,3.737577667E0,7.387587433E0,9.729117481E0
9.247300208E0,-5.129533081E0,3.721860352E0,7.401508484E0,9.744058802E0
9.257326208E0,-5.121000824E0,3.700305176E0,7.397017822E0,9.727938142E0
9.267352208E0,-5.204676819E0,3.722010040E0,7.500602417E0,9.859059597E0
9.277378208E0,-5.271737366E0,3.746259613E0,7.587571564E0,9.969800308E0
9.287403208E0,-5.282664642E0,3.717369690E0,7.617359619E0,9.987469685E0
9.297429208E0,-5.342540131E0,3.736529846E0,7.699688416E0,1.008908281E1
9.307455208E0,-5.440286865E0,3.764371948E0,7.832312622E0,1.025243085E1
9.317481208E0,-5.493126984E0,3.782484283E0,7.909701691E0,1.034625595E1
9.327507208E0,-5.475164337E0,3.732039185E0,7.859855347E0,1.028021727E1
9.337532208E0,-5.398374023E0,3.647465057E0,7.755971375E0,1.012924160E1
9.347558208E0,-5.369334412E0,3.608246613E0,7.712411957E0,1.006630487E1
9.357584208E0,-5.357658691E0,3.569776611E0,7.681276703E0,1.002246594E1
9.367610208E0,-5.334756317E0,3.535348206E0,7.657027130E0,9.979397596E0
9.377635208E0,-5.351521454E0,3.500021667E0,7.668104095E0,9.984425570E0
9.387661208E0,-5.331762543E0,3.479214935E0,7.659721527E0,9.960118586E0
9.397687208E0,-5.260810089E0,3.419788513E0,7.555089111E0,9.820918885E0
9.407713208E0,-5.182073822E0,3.348386993E0,7.437733154E0,9.663615215E0
9.417738208E0,-5.141508179E0,3.304677887E0,7.368576965E0,9.573501386E0
9.427764208E0,-5.141358490E0,3.277434540E0,7.378755798E0,9.571895393E0
9.437790208E0,-5.168601837E0,3.279081116E0,7.407046967E0,9.608910588E0
9.447816208E0,-5.169799347E0,3.280877380E0,7.409591675E0,9.612129341E0
9.457842208E0,-5.135520630E0,3.244053955E0,7.358697510E0,9.541901658E0
9.467867208E0,-5.084476776E0,3.209475861E0,7.289541321E0,9.449341356E0
9.477893208E0,-5.078638916E0,3.203338623E0,7.270979919E0,9.429798543E0
9.487919208E0,-5.105582886E0,3.216960297E0,7.316784668E0,9.484257906E0
9.497945208E0,-5.184768219E0,3.262914734E0,7.418273621E0,9.620770112E0
9.507970208E0,-5.286855927E0,3.334316254E0,7.571105804E0,9.817848724E0
9.517996208E0,-5.322332153E0,3.375780029E0,7.637567596E0,9.902300195E0
9.528022208E0,-5.302872620E0,3.384611664E0,7.620652771E0,9.881821836E0
9.538048208E0,-5.300776978E0,3.388353882E0,7.591014404E0,9.859141863E0
9.548073208E0,-5.325325928E0,3.428620148E0,7.631280670E0,9.917206110E0
9.558099208E0,-5.358107758E0,3.459456024E0,7.668253784E0,9.973929558E0
9.568125208E0,-5.408403168E0,3.513343964E0,7.738757172E0,1.007386585E1
9.578151208E0,-5.430856476E0,3.557053070E0,7.794291687E0,1.014385585E1
9.588176208E0,-5.465434570E0,3.605402527E0,7.848628693E0,1.022109949E1
9.598202208E0,-5.493576050E0,3.643273773E0,7.877069550E0,1.027137022E1
9.608228208E0,-5.473667450E0,3.656147003E0,7.858807526E0,1.025130733E1
9.618254208E0,-5.457950134E0,3.674558716E0,7.844287720E0,1.023838128E1
9.628280208E0,-5.469625854E0,3.693269806E0,7.872279510E0,1.027277146E1
9.638305208E0,-5.481151886E0,3.725602570E0,7.899073792E0,1.031108662E1
9.648331208E0,-5.509443054E0,3.767515411E0,7.941884766E0,1.037408641E1
9.658357208E0,-5.537135468E0,3.789220276E0,7.984396362E0,1.042922072E1
9.668383208E0,-5.544919281E0,3.811374207E0,7.991731110E0,1.044703160E1
9.678408208E0,-5.582790527E0,3.844754791E0,8.058342590E0,1.053026945E1
9.688434208E0,-5.616620178E0,3.865561523E0,8.126450958E0,1.060793068E1
9.698460208E0,-5.619015198E0,3.861819305E0,8.132139130E0,1.061219426E1
9.708486208E0,-5.639821930E0,3.884272614E0,8.151299286E0,1.064607182E1
9.718511208E0,-5.665568390E0,3.896696777E0,8.207582245E0,1.070734875E1
9.728537208E0,-5.691913605E0,3.900888062E0,8.245902557E0,1.075219592E1
9.738563208E0,-5.720803528E0,3.913910980E0,8.286168823E0,1.080309613E1
9.748589208E0,-5.747448120E0,3.928730164E0,8.327333221E0,1.085414940E1
9.758614208E0,-5.760770416E0,3.922742615E0,8.351283417E0,1.087742249E1
9.768640208E0,-5.723946991E0,3.894451447E0,8.308771820E0,1.081508254E1
9.778666208E0,-5.681435394E0,3.857777710E0,8.216563568E0,1.070855144E1
9.788692208E0,-5.669160919E0,3.843257904E0,8.208929443E0,1.069095597E1
9.798718208E0,-5.687422943E0,3.860921173E0,8.234226837E0,1.072641523E1
9.808743208E0,-5.663921814E0,3.842060394E0,8.209827576E0,1.068843802E1
9.818769208E0,-5.625601501E0,3.824097748E0,8.157436523E0,1.062143524E1
9.828795208E0,-5.573210449E0,3.811224518E0,8.092172241E0,1.053894485E1
9.838821208E0,-5.507347412E0,3.773053894E0,7.995323639E0,1.041594985E1
9.848846208E0,-5.456602936E0,3.752845917E0,7.936196594E0,1.033642029E1
9.858872208E0,-5.421276398E0,3.742068329E0,7.879015503E0,1.026996584E1
9.868898208E0,-5.397026825E0,3.740870819E0,7.845485229E0,1.023101420E1
9.878924208E0,-5.345234528E0,3.717369690E0,7.765551453E0,1.013381266E1
9.888949208E0,-5.291196899E0,3.695814514E0,7.685617676E0,1.003616105E1
9.898975208E0,-5.280269623E0,3.703149261E0,7.673792267E0,1.002405355E1
9.909001208E0,-5.274731140E0,3.722908173E0,7.676486664E0,1.003051750E1
9.919027208E0,-5.284909973E0,3.749702454E0,7.686665497E0,1.005362464E1
9.929052208E0,-5.278024292E0,3.770060120E0,7.671247559E0,1.004584157E1
9.939078208E0,-5.249882812E0,3.767066345E0,7.634124756E0,1.000159583E1
9.949104208E0,-5.218448181E0,3.765868835E0,7.586224365E0,9.948103821E0
9.959130208E0,-5.198988647E0,3.774401093E0,7.573201447E0,9.931211744E0
9.969156208E0,-5.175487518E0,3.780089264E0,7.526797943E0,9.885718647E0
9.979181208E0,-5.159321136E0,3.791315918E0,7.506440277E0,9.866068954E0
9.989207208E0,-5.128036194E0,3.795656891E0,7.447911987E0,9.806893464E0
9.999233208E0,-5.137167206E0,3.836821289E0,7.468569031E0,9.843333169E0
1.000925921E1,-5.167404327E0,3.891607361E0,7.525899811E0,9.924003391E0
1.001928421E1,-5.122048645E0,3.889062653E0,7.459438019E0,9.849030724E0
1.002931021E1,-5.049000549E0,3.854783936E0,7.345375214E0,9.711143227E0
1.003933621E1,-5.040917358E0,3.877386932E0,7.318281555E0,9.695474313E0
1.004936221E1,-5.032983856E0,3.908671875E0,7.319329376E0,9.704701172E0
1.005938721E1,-5.032385101E0,3.939807129E0,7.328310699E0,9.723739904E0
1.006941321E1,-5.023104401E0,3.951183472E0,7.303612061E0,9.704956351E0
1.007943921E1,-4.976700897E0,3.933819580E0,7.220684509E0,9.611491720E0
1.008946521E1,-4.934189301E0,3.926933899E0,7.180268555E0,9.556322013E0
1.009949021E1,-4.949307861E0,3.960613861E0,7.213499451E0,9.602951879E0
1.010951621E1,-5.018464050E0,4.025129700E0,7.292235718E0,9.724368992E0
1.011954221E1,-5.063220978E0,4.080065460E0,7.366032257E0,9.825557086E0
1.012956821E1,-5.046306152E0,4.070186005E0,7.328759766E0,9.784801459E0
1.013959421E1,-5.001698914E0,4.030368805E0,7.261549530E0,9.694893826E0
1.014961921E1,-4.978048096E0,4.011957092E0,7.235503693E0,9.655530863E0
1.015964521E1,-5.019212494E0,4.026476898E0,7.273225250E0,9.711066667E0
1.016967121E1,-5.119803314E0,4.094884644E0,7.393275604E0,9.881345575E0
1.017969721E1,-5.175637207E0,4.130660248E0,7.506140900E0,1.000958170E1
1.018972221E1,-5.181325378E0,4.115541687E0,7.500602417E0,1.000214240E1
1.019974821E1,-5.195545807E0,4.108955383E0,7.520660706E0,1.002185352E1
1.020977421E1,-5.251379700E0,4.129313049E0,7.597151642E0,1.011656701E1
1.021980021E1,-5.310806122E0,4.152514801E0,7.689359894E0,1.022615746E1
1.022982521E1,-5.341342621E0,4.159550171E0,7.726333008E0,1.027268321E1
1.023985121E1,-5.331762543E0,4.127217407E0,7.698939972E0,1.023402619E1
1.024987721E1,-5.285957794E0,4.070335693E0,7.624544678E0,1.013127159E1
1.025990321E1,-5.296735382E0,4.058659973E0,7.642806702E0,1.014596574E1
1.026992821E1,-5.345384216E0,4.083358612E0,7.723937988E0,1.024237121E1
1.027995421E1,-5.361849976E0,4.076023865E0,7.731272736E0,1.025358395E1
1.028998021E1,-5.351371765E0,4.055366821E0,7.707921295E0,1.022229086E1
1.030000621E1,-5.364095306E0,4.043691101E0,7.722441101E0,1.023528469E1
1.031003221E1,-5.366490326E0,4.024830322E0,7.727680206E0,1.023306010E1
1.032005721E1,-5.374274139E0,3.997137909E0,7.730224915E0,1.022821154E1
1.033008321E1,-5.351521454E0,3.960314484E0,7.697742462E0,1.017733323E1
1.034010921E1,-5.329966278E0,3.931424561E0,7.666756897E0,1.013132770E1
1.035013521E1,-5.360502777E0,3.929478607E0,7.701334991E0,1.017282423E1
1.036016021E1,-5.394631805E0,3.940555573E0,7.749385071E0,1.023147103E1
1.037018621E1,-5.430108032E0,3.942950592E0,7.789351959E0,1.028138787E1
1.038021221E1,-5.484894104E0,3.968846741E0,7.871980133E0,1.038286468E1
1.039023821E1,-5.578898621E0,4.019740906E0,8.014184418E0,1.055980959E1
1.040026321E1,-5.623056793E0,4.026925964E0,8.073760529E0,1.063111045E1
1.041028921E1,-5.610782318E0,4.007316742E0,8.052654419E0,1.060116545E1
1.042031521E1,-5.597909088E0,3.987408142E0,8.049660645E0,1.058456642E1
1.043034121E1,-5.632337494E0,4.007616119E0,8.091124420E0,1.064192215E1
1.044036621E1,-5.676345978E0,4.027375031E0,8.153993683E0,1.072046017E1
1.045039221E1,-5.724096680E0,4.053271179E0,8.220305786E0,1.080591122E1
1.046041821E1,-5.748645630E0,4.071383514E0,8.267158356E0,1.086135340E1
1.047044421E1,-5.761967926E0,4.083807678E0,8.268505554E0,1.087409507E1
1.048046921E1,-5.753435669E0,4.082161102E0,8.260272675E0,1.086269607E1
1.049049521E1,-5.738466797E0,4.070335693E0,8.222251740E0,1.082141661E1
1.050052121E1,-5.730383606E0,4.078269196E0,8.225544891E0,1.082262282E1
1.051054721E1,-5.778433685E0,4.121529236E0,8.291407928E0,1.091442827E1
1.052057321E1,-5.780529327E0,4.126319275E0,8.285270691E0,1.091268713E1
1.053059821E1,-5.741161194E0,4.096381531E0,8.217611389E0,1.082914634E1
1.054062421E1,-5.686225433E0,4.068838806E0,8.151149597E0,1.073917356E1
1.055065021E1,-5.648354187E0,4.046684875E0,8.099207611E0,1.067130392E1
1.056067621E1,-5.620362396E0,4.022884369E0,8.029153290E0,1.059430860E1
1.057070121E1,-5.598956909E0,4.003424835E0,8.012388153E0,1.056286385E1
1.058072721E1,-5.596861267E0,3.985462189E0,7.992778931E0,1.054007969E1
1.059075321E1,-5.585035858E0,3.972588959E0,7.976762238E0,1.051678774E1
1.060077921E1,-5.555996246E0,3.935316467E0,7.951165466E0,1.046789579E1
1.061080421E1,-5.544919281E0,3.902235260E0,7.915539551E0,1.042253982E1
1.062083021E1,-5.558241577E0,3.893403625E0,7.931705933E0,1.043861103E1
1.063085621E1,-5.553152161E0,3.874243469E0,7.927814026E0,1.042580916E1
1.064088221E1,-5.521717529E0,3.814966736E0,7.896080017E0,1.036298293E1
1.065090721E1,-5.510790253E0,3.764970703E0,7.848479004E0,1.030254514E1
1.066093321E1,-5.490582275E0,3.719615021E0,7.822882233E0,1.025570651E1
1.067095921E1,-5.476212158E0,3.680995331E0,7.818391571E0,1.023063405E1
1.068098521E1,-5.477559357E0,3.645519104E0,7.804320831E0,1.020788370E1
1.069101021E1,-5.481151886E0,3.614533539E0,7.798782349E0,1.019455172E1
1.070103621E1,-5.463039551E0,3.571872253E0,7.772137756E0,1.014934470E1
1.071106221E1,-5.456453247E0,3.533701630E0,7.773335266E0,1.013334448E1
1.072108821E1,-5.438789978E0,3.482208710E0,7.738906860E0,1.007952843E1
1.073111421E1,-5.377267914E0,3.423680420E0,7.643405457E0,9.952800852E0
1.074113921E1,-5.306914215E0,3.359164581E0,7.550149384E0,9.821002031E0
1.075116521E1,-5.287304993E0,3.315754852E0,7.526348877E0,9.777308001E0
1.076119121E1,-5.265001373E0,3.277584229E0,7.497309265E0,9.729976570E0
1.077121721E1,-5.265600128E0,3.261866913E0,7.491471405E0,9.720517696E0
1.078124221E1,-5.240602112E0,3.229384460E0,7.463479614E0,9.674521303E0
1.079126821E1,-5.152884521E0,3.165617065E0,7.347321167E0,9.516116783E0
1.080129421E1,-5.084027710E0,3.115022278E0,7.245532837E0,9.383413432E0
1.081132021E1,-5.067561951E0,3.096161499E0,7.239545288E0,9.363621956E0
1.082134521E1,-5.075794830E0,3.108136597E0,7.260651398E0,9.388357949E0
1.083137121E1,-5.094356232E0,3.116070099E0,7.306905212E0,9.436801474E0
1.084139721E1,-5.097350006E0,3.110830994E0,7.313042450E0,9.441442497E0
1.085142321E1,-5.056784363E0,3.092718658E0,7.256909180E0,9.370096458E0
1.086144846E1,-4.986580353E0,3.066972198E0,7.164850616E0,9.252425976E0
1.087147446E1,-4.920417938E0,3.027005310E0,7.059619446E0,9.122033795E0
1.088150046E1,-4.916376343E0,3.036884766E0,7.065008240E0,9.127308850E0
1.089152646E1,-4.976850586E0,3.096161499E0,7.158863068E0,9.252274218E0
1.090155146E1,-5.022954712E0,3.144960022E0,7.251071320E0,9.364768169E0
1.091157746E1,-5.033283234E0,3.173550568E0,7.269333344E0,9.394071033E0
1.092160346E1,-5.004393311E0,3.174149323E0,7.220684509E0,9.341170222E0
1.093162946E1,-4.957540741E0,3.171305237E0,7.151528320E0,9.261681511E0
1.094165546E1,-4.953199768E0,3.211272125E0,7.146139526E0,9.268967943E0
1.095168046E1,-5.006189575E0,3.273692322E0,7.242089996E0,9.392915575E0
1.096170646E1,-5.070256348E0,3.359014893E0,7.351811829E0,9.541468317E0
1.097173246E1,-5.067711639E0,3.393592987E0,7.351213074E0,9.551885064E0
1.098175846E1,-5.001399536E0,3.386258240E0,7.252418518E0,9.438130988E0
1.099178346E1,-4.970713348E0,3.405119019E0,7.206314392E0,9.393284508E0
1.100180946E1,-4.993915100E0,3.463946686E0,7.249275055E0,9.459920903E0
1.101183546E1,-5.068759460E0,3.551813965E0,7.371271362E0,9.625141371E0
1.102186146E1,-5.140011292E0,3.647165680E0,7.479795685E0,9.781046828E0
1.103188646E1,-5.149291992E0,3.697461090E0,7.501201172E0,9.821122418E0
1.104191246E1,-5.132227478E0,3.712879028E0,7.457342377E0,9.784538052E0
1.105193846E1,-5.123096466E0,3.737128601E0,7.452552338E0,9.785335146E0
1.106196446E1,-5.118905182E0,3.772155762E0,7.459438019E0,9.801814368E0
1.107198946E1,-5.155728607E0,3.831731873E0,7.506290588E0,9.879681423E0
1.108201546E1,-5.213059387E0,3.898193665E0,7.602690125E0,1.000863623E1
1.109204146E1,-5.289250946E0,3.974983978E0,7.706873474E0,1.015739002E1
1.110206746E1,-5.359305267E0,4.046535187E0,7.821684723E0,1.030899374E1
1.111209246E1,-5.385949860E0,4.073928223E0,7.857310638E0,1.036063114E1
1.112211846E1,-5.386847992E0,4.086202698E0,7.855364685E0,1.036445551E1
1.113214446E1,-5.423671417E0,4.117038574E0,7.899672546E0,1.042933577E1
1.114217046E1,-5.470523987E0,4.163741455E0,7.970475311E0,1.052577086E1
1.115219646E1,-5.507048035E0,4.196523285E0,8.036188660E0,1.060748386E1
1.116222146E1,-5.541326752E0,4.212989044E0,8.081843719E0,1.066638537E1
1.117224746E1,-5.546865234E0,4.228257294E0,8.073161774E0,1.066873070E1
1.118227346E1,-5.565576324E0,4.234843597E0,8.095315704E0,1.069783513E1
1.119229946E1,-5.590125275E0,4.259093170E0,8.140671387E0,1.075452955E1
1.120232446E1,-5.646557922E0,4.301604767E0,8.213569794E0,1.085588083E1
1.121235046E1,-5.665867767E0,4.311484222E0,8.242609406E0,1.089181177E1
1.122237646E1,-5.633235626E0,4.288432159E0,8.181237030E0,1.081927139E1
1.123240246E1,-5.607489166E0,4.271816711E0,8.144263916E0,1.077132246E1
1.124242746E1,-5.574557648E0,4.248016205E0,8.107141113E0,1.071667260E1
1.125245346E1,-5.540578308E0,4.215683441E0,8.048313446E0,1.064167958E1
1.126247946E1,-5.562582550E0,4.230652313E0,8.063731384E0,1.067073135E1
1.127250546E1,-5.592071228E0,4.260140991E0,8.120613098E0,1.074078298E1
1.128253046E1,-5.640420685E0,4.284240875E0,8.182584229E0,1.082237266E1
1.129255646E1,-5.661077728E0,4.291276245E0,8.205935669E0,1.085358158E1
1.130258246E1,-5.623805237E0,4.268972626E0,8.154143372E0,1.078616553E1
1.131260846E1,-5.567073212E0,4.216132507E0,8.052953796E0,1.065918113E1
1.132263346E1,-5.538931732E0,4.180506592E0,8.010442200E0,1.059828214E1
1.133265946E1,-5.506299591E0,4.160448303E0,7.959697723E0,1.053496337E1
1.134268546E1,-5.525759125E0,4.181105347E0,7.990234222E0,1.057636510E1
1.135271146E1,-5.592071228E0,4.233795776E0,8.096812592E0,1.071236022E1
1.136273746E1,-5.583538971E0,4.217479706E0,8.078251190E0,1.068743116E1
1.137276246E1,-5.529501343E0,4.173620911E0,8.008196869E0,1.058894299E1
1.138278846E1,-5.507048035E0,4.166735229E0,7.969427490E0,1.054519014E1
1.139281446E1,-5.516328735E0,4.180506592E0,7.965385895E0,1.055243529E1
1.140284046E1,-5.520220642E0,4.181554413E0,7.986192627E0,1.057059629E1
1.141286546E1,-5.463638306E0,4.140988770E0,7.892786865E0,1.045443523E1
1.142289146E1,-5.382057953E0,4.091292114E0,7.771239624E0,1.030035845E1
1.143291746E1,-5.328020325E0,4.058809662E0,7.682474213E0,1.019225915E1
1.144294346E1,-5.321134644E0,4.051624603E0,7.679630127E0,1.018365625E1
1.145296846E1,-5.348078613E0,4.089495850E0,7.705825653E0,1.023257886E1
1.146299446E1,-5.367538147E0,4.115092621E0,7.738757172E0,1.027778262E1
1.147302046E1,-5.364544373E0,4.113595734E0,7.734565887E0,1.027246395E1
1.148304646E1,-5.329517212E0,4.088747406E0,7.683072968E0,1.020545047E1
1.149307146E1,-5.287304993E0,4.049978027E0,7.618407440E0,1.011919206E1
1.150309746E1,-5.232219543E0,4.010460205E0,7.521109772E0,1.000135014E1
1.151312346E1,-5.231620789E0,4.004023590E0,7.519014130E0,9.996881237E0
1.152314946E1,-5.299579468E0,4.051774292E0,7.614665222E0,1.012351440E1
1.153317446E1,-5.362598419E0,4.076323242E0,7.697892151E0,1.022894992E1
1.154320046E1,-5.370681610E0,4.070784760E0,7.721542969E0,1.024879190E1
1.155322646E1,-5.340743866E0,4.038601685E0,7.666906586E0,1.017916034E1
1.156325246E1,-5.290598145E0,3.981869659E0,7.578739929E0,1.006394623E1
1.157327746E1,-5.252427521E0,3.929179230E0,7.525151367E0,9.982702409E0
1.158330346E1,-5.257067871E0,3.908073120E0,7.527845764E0,9.978890718E0
1.159332946E1,-5.302124176E0,3.918251953E0,7.592211914E0,1.005519273E1
1.160335546E1,-5.346731415E0,3.905678101E0,7.640860748E0,1.011061874E1
1.161338046E1,-5.375022583E0,3.897145844E0,7.670499115E0,1.014471144E1
1.162340646E1,-5.375022583E0,3.872896271E0,7.677684174E0,1.014085931E1
1.163343246E1,-5.347030792E0,3.819008331E0,7.612419891E0,1.005606780E1
1.164345846E1,-5.287454681E0,3.744762726E0,7.520511017E0,9.926656579E0
1.165348446E1,-5.249882812E0,3.680546265E0,7.444618835E0,9.824970227E0
1.166350946E1,-5.203030243E0,3.618575134E0,7.376959534E0,9.725489277E0
1.167353546E1,-5.168751526E0,3.553909607E0,7.320227509E0,9.640124305E0
1.168356146E1,-5.171745300E0,3.521427155E0,7.313790894E0,9.624912254E0
1.169358746E1,-5.155429230E0,3.487298126E0,7.308252411E0,9.599492282E0
1.170361246E1,-5.149591370E0,3.441044312E0,7.276368713E0,9.555345042E0
1.171363846E1,-5.192402344E0,3.434458008E0,7.323370972E0,9.611883598E0
1.172366446E1,-5.175337830E0,3.388952637E0,7.318431244E0,9.582721821E0
1.173369046E1,-5.116809540E0,3.321293335E0,7.223378906E0,9.454624906E0
1.174371546E1,-5.088518372E0,3.275488586E0,7.177723846E0,9.388373891E0
1.175374146E1,-5.055586853E0,3.223396912E0,7.140601044E0,9.324024311E0
1.176376746E1,-5.062472534E0,3.197351074E0,7.139852600E0,9.318217491E0
1.177379346E1,-5.126988373E0,3.209326172E0,7.253166962E0,9.444268909E0
1.178381846E1,-5.182672577E0,3.219954071E0,7.342830505E0,9.547007861E0
1.179384446E1,-5.213957520E0,3.198997650E0,7.365882568E0,9.574714878E0
1.180387046E1,-5.216651917E0,3.188968506E0,7.381300507E0,9.584705239E0
1.181389646E1,-5.216053162E0,3.178190918E0,7.397915955E0,9.593605608E0
1.182392146E1,-5.235512695E0,3.172652435E0,7.424859924E0,9.623141979E0
1.183394746E1,-5.276078339E0,3.187621307E0,7.500901794E0,9.708834120E0
1.184397346E1,-5.336702271E0,3.218157806E0,7.592960358E0,9.822931222E0
1.185399946E1,-5.410498810E0,3.245101776E0,7.699538727E0,9.954249319E0
1.186402567E1,-5.457351379E0,3.282074890E0,7.756420441E0,1.003577390E1
1.187405067E1,-5.482648773E0,3.303181000E0,7.799381104E0,1.008963765E1
1.188407667E1,-5.491480408E0,3.310515747E0,7.815697174E0,1.010945072E1
1.189410267E1,-5.477110291E0,3.318898315E0,7.815996552E0,1.010463385E1
1.190412867E1,-5.505551147E0,3.349135437E0,7.852969666E0,1.015858918E1
1.191415367E1,-5.538931732E0,3.394491119E0,7.900870056E0,1.022868918E1
1.192417967E1,-5.598956909E0,3.458857269E0,7.989485779E0,1.035103353E1
1.193420567E1,-5.623954926E0,3.496129761E0,8.034392395E0,1.041168831E1
1.194423167E1,-5.608836365E0,3.520978088E0,8.023614807E0,1.040359201E1
1.195425667E1,-5.610183563E0,3.565285950E0,8.050109711E0,1.043981273E1
1.196428267E1,-5.620063019E0,3.612437897E0,8.074658661E0,1.048021605E1
1.197430867E1,-5.598058777E0,3.626658325E0,8.059390411E0,1.046158145E1
1.198433467E1,-5.571563873E0,3.653302917E0,8.023465118E0,1.042904304E1
1.199435967E1,-5.574108582E0,3.693569183E0,8.028404846E0,1.044836945E1
1.200438567E1,-5.623056793E0,3.761677551E0,8.102201385E0,1.055531397E1
1.201441167E1,-5.658083954E0,3.826492767E0,8.173752594E0,1.065205109E1
1.202443767E1,-5.667364655E0,3.850143585E0,8.194409637E0,1.068133779E1
1.203446267E1,-5.657036133E0,3.874842224E0,8.193361816E0,1.068398979E1
1.204448867E1,-5.648204498E0,3.894451447E0,8.185727692E0,1.068059474E1
1.205451467E1,-5.635630646E0,3.910468140E0,8.170758820E0,1.066833602E1
1.206454067E1,-5.605692902E0,3.909719696E0,8.120613098E0,1.061386160E1
1.207456567E1,-5.571414185E0,3.913910980E0,8.091423798E0,1.057499382E1
1.208459167E1,-5.569468231E0,3.926784210E0,8.089627533E0,1.057736660E1
1.209461767E1,-5.545518036E0,3.931873627E0,8.043972473E0,1.053175644E1
1.210464367E1,-5.488486633E0,3.903432770E0,7.983348541E0,1.044481339E1
1.211466867E1,-5.435646515E0,3.884272614E0,7.905510406E0,1.035040683E1
1.212469467E1,-5.401068420E0,3.869303741E0,7.839048615E0,1.027588121E1
1.213472067E1,-5.355413361E0,3.848497009E0,7.771688690E0,1.019267024E1
1.214474667E1,-5.352868652E0,3.857478333E0,7.765551453E0,1.019005060E1
1.215477267E1,-5.355563049E0,3.876039734E0,7.783065033E0,1.021184806E1
1.216479767E1,-5.294190674E0,3.846401367E0,7.698640594E0,1.010407469E1
1.217482367E1,-5.235812073E0,3.810326385E0,7.599546661E0,9.984258845E0
1.218484967E1,-5.218597870E0,3.809278564E0,7.576195221E0,9.957062867E0
1.219487567E1,-5.218298492E0,3.819457397E0,7.566315765E0,9.953292331E0
1.220490067E1,-5.185666351E0,3.807781677E0,7.512577515E0,9.890862335E0
1.221492667E1,-5.140759735E0,3.785178680E0,7.450307007E0,9.811323193E0
1.222495267E1,-5.122647400E0,3.789070587E0,7.425758057E0,9.784705157E0
1.223497867E1,-5.119503937E0,3.795058136E0,7.419022064E0,9.780269690E0
1.224500367E1,-5.096302185E0,3.784579926E0,7.389982452E0,9.742031709E0
1.225502967E1,-5.072801056E0,3.779191132E0,7.344327393E0,9.693025380E0
1.226505567E1,-5.064268799E0,3.784579926E0,7.331753540E0,9.681140101E0
1.227508167E1,-5.059778137E0,3.796405334E0,7.326364746E0,9.679342367E0
1.228510667E1,-5.046755219E0,3.800746307E0,7.308252411E0,9.660536426E0
1.229513267E1,-5.027894440E0,3.789519653E0,7.258256378E0,9.608458115E0
1.230515867E1,-5.011877747E0,3.794908447E0,7.236252136E0,9.585593025E0
1.231518467E1,-4.994513855E0,3.802542572E0,7.215295715E0,9.563733106E0
1.232520967E1,-4.930596771E0,3.775897980E0,7.126979370E0,9.453148947E0
1.233523567E1,-4.913232880E0,3.778442688E0,7.076683960E0,9.407228197E0
1.234526167E1,-4.954546967E0,3.832630005E0,7.144642639E0,9.501710732E0
1.235528767E1,-5.019511871E0,3.899840240E0,7.235952759E0,9.631368836E0
1.236531267E1,-5.097499695E0,3.975582733E0,7.355404358E0,9.792432511E0
1.237533867E1,-5.147196350E0,4.050726471E0,7.423662415E0,9.900140345E0
1.238536467E1,-5.139861603E0,4.059109039E0,7.411687317E0,9.890786236E0
1.239539067E1,-5.119953003E0,4.059258728E0,7.364385681E0,9.845083882E0
1.240541667E1,-5.115162964E0,4.077820129E0,7.368726654E0,9.853509104E0
1.241544167E1,-5.161865845E0,4.134552155E0,7.423961792E0,9.942564519E0
1.242546767E1,-5.226531372E0,4.186494141E0,7.512427826E0,1.006379328E1
1.243549367E1,-5.265749817E0,4.236639862E0,7.571854248E0,1.014939482E1
1.244551967E1,-5.258115692E0,4.253854065E0,7.571255493E0,1.015219015E1
1.245554467E1,-5.246140594E0,4.239783325E0,7.537575531E0,1.011497893E1
1.246557067E1,-5.263504486E0,4.246519318E0,7.543263702E0,1.013105291E1
1.247559667E1,-5.314548340E0,4.285288696E0,7.605833588E0,1.022041231E1
1.248562267E1,-5.377866669E0,4.329297180E0,7.692653046E0,1.033640048E1
1.249564767E1,-5.444777527E0,4.363875275E0,7.774083710E0,1.044630974E1
1.250567367E1,-5.427413635E0,4.327500916E0,7.756121063E0,1.040872215E1
1.251569967E1,-5.380561066E0,4.270319824E0,7.669750671E0,1.029617133E1
1.252572567E1,-5.376669159E0,4.239633636E0,7.662116547E0,1.027575275E1
1.253575067E1,-5.424868927E0,4.246070251E0,7.719896393E0,1.034674421E1
1.254577667E1,-5.466332703E0,4.241579590E0,7.754474487E0,1.039248119E1
1.255580267E1,-5.445825348E0,4.190535736E0,7.721093903E0,1.033599993E1
1.256582867E1,-5.422024841E0,4.132306824E0,7.679779816E0,1.026904723E1
1.257585367E1,-5.457201691E0,4.102668457E0,7.704777832E0,1.029449077E1
1.258587967E1,-5.461243286E0,4.070784760E0,7.705825653E0,1.028475648E1
1.259590567E1,-5.443130951E0,4.009262695E0,7.664511566E0,1.021991191E1
1.260593167E1,-5.417085114E0,3.940256195E0,7.619455261E0,1.014527124E1
1.261595667E1,-5.365592194E0,3.854185181E0,7.536378021E0,1.002204154E1
1.262598267E1,-5.344785461E0,3.787873077E0,7.502548370E0,9.960067577E0
1.263600867E1,-5.373226318E0,3.765270081E0,7.539371796E0,9.994545859E0
1.264603467E1,-5.418881378E0,3.743116150E0,7.594307556E0,1.005229830E1
1.265605967E1,-5.421725464E0,3.703298950E0,7.603438568E0,1.004598468E1
1.266608567E1,-5.397625580E0,3.631897430E0,7.557783508E0,9.972218028E0
1.267611167E1,-5.413941650E0,3.603007507E0,7.593259735E0,9.997500723E0
1.268613767E1,-5.487139435E0,3.605103149E0,7.702382813E0,1.012087787E1
1.269616267E1,-5.539530487E0,3.588936768E0,7.777825928E0,1.020105099E1
1.270618867E1,-5.604196014E0,3.596720581E0,7.877668304E0,1.031508942E1
1.271621467E1,-5.648354187E0,3.590134277E0,7.955805817E0,1.039652900E1
1.272624067E1,-5.665119324E0,3.557651825E0,7.973618774E0,1.040812470E1
1.273626567E1,-5.716761932E0,3.559148712E0,8.051157532E0,1.049619189E1
1.274629167E1,-5.764662323E0,3.569776611E0,8.123457184E0,1.058136066E1
1.275631767E1,-5.786516876E0,3.557202759E0,8.166118469E0,1.062181528E1
1.276634367E1,-5.793851624E0,3.556154938E0,8.183632050E0,1.063892796E1
1.277636867E1,-5.815107422E0,3.560944977E0,8.225844269E0,1.068458316E1
1.278639467E1,-5.856122131E0,3.571572876E0,8.276439056E0,1.074940662E1
1.279642067E1,-5.878725128E0,3.581901398E0,8.322543182E0,1.080065516E1
1.280644667E1,-5.876180420E0,3.591032410E0,8.322992249E0,1.080264829E1
1.281647267E1,-5.846092987E0,3.588038635E0,8.300988007E0,1.076834371E1
1.282649767E1,-5.797743530E0,3.574117584E0,8.217461700E0,1.067308874E1
1.283652367E1,-5.728737030E0,3.547772369E0,8.123157806E0,1.055418445E1
1.284654967E1,-5.712420959E0,3.553610229E0,8.120613098E0,1.054534286E1
1.285657567E1,-5.732628937E0,3.580554199E0,8.134085083E0,1.057576205E1
1.286660329E1,-5.697302399E0,3.587290192E0,8.092172241E0,1.052668785E1
1.287662929E1,-5.662873993E0,3.592978363E0,8.044870605E0,1.047366118E1
1.288665529E1,-5.615422668E0,3.583547974E0,7.974965973E0,1.039109571E1
1.289668129E1,-5.545967102E0,3.562142487E0,7.894882507E0,1.028473529E1
1.290670629E1,-5.510790253E0,3.568728790E0,7.849526825E0,1.023326467E1
1.291673229E1,-5.517975311E0,3.575614471E0,7.856262817E0,1.024470282E1
1.292675829E1,-5.469027100E0,3.573219452E0,7.797435150E0,1.017242103E1
1.293678429E1,-5.406906281E0,3.553759918E0,7.731422424E0,1.008160393E1
1.294680929E1,-5.347330170E0,3.520828400E0,7.641160126E0,9.968826442E0
1.295683529E1,-5.259013824E0,3.484304352E0,7.500752106E0,9.800963492E0
1.296686129E1,-5.233866119E0,3.480113068E0,7.469916229E0,9.762386491E0
1.297688729E1,-5.283263397E0,3.508404236E0,7.542215881E0,9.854277894E0
1.298691229E1,-5.280868378E0,3.518882446E0,7.554789734E0,9.866354566E0
1.299693829E1,-5.227130127E0,3.488944702E0,7.482490082E0,9.771554755E0
1.300696429E1,-5.141508179E0,3.433410187E0,7.360493774E0,9.612506461E0
1.301699029E1,-5.112318878E0,3.414699097E0,7.319029999E0,9.558460878E0
1.302701529E1,-5.114264832E0,3.429218903E0,7.327412567E0,9.571113936E0
1.303704129E1,-5.075345764E0,3.408861237E0,7.291187897E0,9.515297710E0
1.304706729E1,-5.028493195E0,3.383713531E0,7.226971436E0,9.432092939E0
1.305709329E1,-4.996310120E0,3.376827850E0,7.190297699E0,9.384373295E0
1.306711829E1,-5.021008759E0,3.398233337E0,7.215744781E0,9.424727663E0
1.307714429E1,-5.072801056E0,3.426374817E0,7.293882294E0,9.522293519E0
1.308717029E1,-5.075046387E0,3.439996490E0,7.298971710E0,9.532295616E0
1.309719629E1,-5.032085724E0,3.413052521E0,7.221432953E0,9.440334111E0
1.310722129E1,-5.013075256E0,3.431913300E0,7.222031708E0,9.437515267E0
1.311724729E1,-5.076393585E0,3.480562134E0,7.303612061E0,9.551273932E0
1.312727329E1,-5.121898956E0,3.531905365E0,7.383845215E0,9.655535955E0
1.313729929E1,-5.134173431E0,3.554508362E0,7.404053192E0,9.685776695E0
1.314732429E1,-5.078788605E0,3.544778595E0,7.330556030E0,9.596697385E0
1.315735029E1,-5.044210510E0,3.535797272E0,7.276967468E0,9.534158461E0
1.316737629E1,-5.055287476E0,3.568279724E0,7.285200348E0,9.558383533E0
1.317740229E1,-5.120701447E0,3.644620972E0,7.400610352E0,9.709473668E0
1.318742829E1,-5.209915924E0,3.729344788E0,7.532186737E0,9.888633552E0
1.319745329E1,-5.229076080E0,3.776496735E0,7.546257477E0,9.927293999E0
1.320747929E1,-5.196144562E0,3.791016541E0,7.522906036E0,9.897769443E0
1.321750529E1,-5.150040436E0,3.794609070E0,7.444618835E0,9.815514459E0
1.322753129E1,-5.104085999E0,3.804039459E0,7.389084320E0,9.752998369E0
1.323755629E1,-5.105882263E0,3.838467865E0,7.386988678E0,9.765831811E0
1.324758229E1,-5.107678528E0,3.881428528E0,7.404053192E0,9.796625492E0
1.325760829E1,-5.096900940E0,3.911366272E0,7.384743347E0,9.788341004E0
1.326763429E1,-5.100493469E0,3.960015106E0,7.395221558E0,9.817639999E0
1.327765929E1,-5.155429230E0,4.027674408E0,7.452702026E0,9.916823038E0
1.328768529E1,-5.171894989E0,4.075425110E0,7.478298798E0,9.964062450E0
1.329771129E1,-5.167254639E0,4.100722504E0,7.462880859E0,9.960473697E0
1.330773729E1,-5.132526855E0,4.110751648E0,7.402406616E0,9.901350148E0
1.331776229E1,-5.078189850E0,4.112847290E0,7.338040466E0,9.826004420E0
1.332778829E1,-5.131179657E0,4.169429626E0,7.397915955E0,9.921809742E0
1.333781429E1,-5.206173706E0,4.258644104E0,7.506889343E0,1.007936912E1
1.334784029E1,-5.247338104E0,4.307442627E0,7.552394714E0,1.015516052E1
1.335786529E1,-5.248385925E0,4.330794067E0,7.560328217E0,1.017152372E1
1.336789129E1,-5.255720673E0,4.339026947E0,7.554939423E0,1.017481520E1
1.337791729E1,-5.284161530E0,4.372108154E0,7.603588257E0,1.023973863E1
1.338794329E1,-5.341342621E0,4.427343292E0,7.678582306E0,1.034852337E1
1.339796829E1,-5.379213867E0,4.445904694E0,7.701933746E0,1.039335335E1
1.340799429E1,-5.396727448E0,4.455335083E0,7.732619934E0,1.042919407E1
1.341802029E1,-5.418432312E0,4.446653137E0,7.749534760E0,1.044927853E1
1.342804629E1,-5.440735931E0,4.448150024E0,7.766748962E0,1.047425585E1
1.343807129E1,-5.505401459E0,4.477489014E0,7.849377136E0,1.058159130E1
1.344809729E1,-5.549859009E0,4.486620026E0,7.920628967E0,1.066147539E1
1.345812329E1,-5.598657532E0,4.490511932E0,7.975415039E0,1.072925480E1
1.346814929E1,-5.645809479E0,4.483177185E0,8.031697998E0,1.079269267E1
1.347817429E1,-5.654641113E0,4.456233215E0,8.028105469E0,1.078348079E1
1.348820029E1,-5.665269012E0,4.423451385E0,8.043373718E0,1.078693914E1
1.349822629E1,-5.691763916E0,4.401896210E0,8.080646210E0,1.081987569E1
1.350825229E1,-5.694458313E0,4.342619476E0,8.069419556E0,1.078891706E1
1.351827729E1,-5.704038391E0,4.299509125E0,8.064330139E0,1.077289438E1
1.352830329E1,-5.713768158E0,4.250860291E0,8.068371735E0,1.076176483E1
1.353832929E1,-5.734125824E0,4.215833130E0,8.105644226E0,1.078679360E1
1.354835529E1,-5.759123840E0,4.188140717E0,8.141419830E0,1.081622609E1
1.355838029E1,-5.750591583E0,4.123175812E0,8.123307495E0,1.077302218E1
1.356840629E1,-5.701343994E0,4.020489349E0,8.040829010E0,1.064540225E1
1.357843229E1,-5.644462280E0,3.931274872E0,7.955356750E0,1.051677601E1
1.358845829E1,-5.651497650E0,3.878734131E0,7.957901459E0,1.050296148E1
1.359848329E1,-5.661526794E0,3.838467865E0,7.982600098E0,1.051230829E1
1.360850929E1,-5.639372864E0,3.766617279E0,7.934550018E0,1.043776873E1
1.361853529E1,-5.588179321E0,3.695964203E0,7.865094452E0,1.033187351E1
1.362856129E1,-5.529201965E0,3.624113617E0,7.786208496E0,1.021427024E1
1.363858629E1,-5.533992004E0,3.598367157E0,7.788304138E0,1.020935821E1
1.364861229E1,-5.586832123E0,3.602408752E0,7.869884491E0,1.030170490E1
1.365863829E1,-5.598358154E0,3.593427429E0,7.912994843E0,1.033778613E1
1.366866429E1,-5.586083679E0,3.562741241E0,7.883356476E0,1.029780391E1
1.367868929E1,-5.532046051E0,3.521427155E0,7.812104645E0,1.019965498E1
1.368871529E1,-5.473368073E0,3.472628632E0,7.713010712E0,1.007509017E1
1.369874129E1,-5.425916748E0,3.446582794E0,7.669002228E0,1.000665282E1
1.370876729E1,-5.408403168E0,3.434308319E0,7.640860748E0,9.971361563E0
1.371879229E1,-5.428162079E0,3.449875946E0,7.663463745E0,1.000476207E1
1.372881829E1,-5.438789978E0,3.469335480E0,7.687264252E0,1.003547492E1
1.373884429E1,-5.421426086E0,3.471580811E0,7.664511566E0,1.000941915E1
1.374887029E1,-5.397775269E0,3.466042328E0,7.629035339E0,9.967527651E0
1.375889629E1,-5.373825073E0,3.460354156E0,7.607929230E0,9.936429639E0
1.376892129E1,-5.359454956E0,3.473077698E0,7.598199463E0,9.925656714E0
1.377894729E1,-5.349126434E0,3.484304352E0,7.572902069E0,9.904664365E0
1.378897329E1,-5.322481842E0,3.468437347E0,7.541916504E0,9.861002745E0
1.379899929E1,-5.319188690E0,3.480412445E0,7.547904053E0,9.868023850E0
1.380902429E1,-5.305267639E0,3.481310577E0,7.514972534E0,9.835659624E0
1.381905029E1,-5.256918182E0,3.467090149E0,7.451803894E0,9.756294591E0
1.382907629E1,-5.221142578E0,3.452869720E0,7.411837006E0,9.701441487E0
1.383910229E1,-5.171296234E0,3.425326996E0,7.326963501E0,9.599977287E0
1.384912729E1,-5.118605804E0,3.395089874E0,7.255561981E0,9.506310551E0
1.385915329E1,-5.118755493E0,3.394940186E0,7.258406067E0,9.508508574E0
1.386917617E1,-5.139113159E0,3.410507812E0,7.301815796E0,9.558167268E0
1.387920217E1,-5.161267090E0,3.415896606E0,7.322622528E0,9.587900098E0
1.388922717E1,-5.143154755E0,3.405418396E0,7.312144318E0,9.566418860E0
1.389925317E1,-5.097350006E0,3.365451508E0,7.242988129E0,9.474709387E0
1.390927917E1,-5.044958954E0,3.315904541E0,7.172784119E0,9.375268838E0
1.391930517E1,-4.994364166E0,3.278033295E0,7.098538513E0,9.277845910E0
1.392933017E1,-4.963977356E0,3.255729675E0,7.059918823E0,9.224060966E0
1.393935617E1,-4.973856812E0,3.246149597E0,7.079378357E0,9.240905622E0
1.394938217E1,-5.014871521E0,3.250191193E0,7.133116608E0,9.305591421E0
1.395940817E1,-5.016218719E0,3.253634033E0,7.152576141E0,9.322442283E0
1.396943317E1,-5.014871521E0,3.240760803E0,7.157665558E0,9.321139587E0
1.397945917E1,-5.012326813E0,3.229234772E0,7.159162445E0,9.316919244E0
1.398948517E1,-5.042264557E0,3.247796173E0,7.211553497E0,9.379718316E0
1.399951117E1,-5.114713898E0,3.290607147E0,7.325915680E0,9.521419758E0
1.400953617E1,-5.151537323E0,3.317551117E0,7.393724670E0,9.602689556E0
1.401956217E1,-5.126688995E0,3.314856720E0,7.365134125E0,9.566421264E0
1.402958817E1,-5.117557983E0,3.323538666E0,7.362739105E0,9.562700252E0
1.403961417E1,-5.160069580E0,3.356619873E0,7.427404633E0,9.646738030E0
1.404963917E1,-5.179080048E0,3.392844543E0,7.464976501E0,9.698460620E0
1.405966517E1,-5.184169464E0,3.424728241E0,7.486082611E0,9.728607784E0
1.406969117E1,-5.156926117E0,3.444636841E0,7.443421326E0,9.688339949E0
1.407971717E1,-5.144501953E0,3.461851044E0,7.429200897E0,9.676948846E0
1.408974217E1,-5.176685028E0,3.523223419E0,7.487429810E0,9.760777443E0
1.409976817E1,-5.218448181E0,3.603007507E0,7.549700317E0,9.859606453E0
1.410979417E1,-5.261109467E0,3.673660583E0,7.604336700E0,9.949924198E0
1.411982017E1,-5.286855927E0,3.743864594E0,7.660170593E0,1.003222713E1
1.412984517E1,-5.325325928E0,3.827540588E0,7.724536743E0,1.013299714E1
1.413987117E1,-5.373376007E0,3.909420319E0,7.797734528E0,1.024506714E1
1.414989717E1,-5.402565308E0,3.992796936E0,7.838300171E0,1.032323054E1
1.415992317E1,-5.422324219E0,4.069287872E0,7.887248383E0,1.040045147E1
1.416994817E1,-5.438939667E0,4.134851532E0,7.895481262E0,1.044115349E1
1.417997417E1,-5.434748383E0,4.192332001E0,7.889044647E0,1.045701502E1
1.419000017E1,-5.411696320E0,4.235142975E0,7.876919861E0,1.045316983E1
1.420002617E1,-5.397625580E0,4.275708618E0,7.845335541E0,1.043864626E1
1.421005117E1,-5.397475891E0,4.328997803E0,7.848329315E0,1.046275494E1
1.422007717E1,-5.412594452E0,4.390669556E0,7.861950989E0,1.050639954E1
1.423010317E1,-5.433850250E0,4.437671814E0,7.895481262E0,1.056211551E1
1.424012917E1,-5.402565308E0,4.460873566E0,7.855364685E0,1.052586620E1
1.425015417E1,-5.353916473E0,4.445305939E0,7.768694916E0,1.042965902E1
1.426018017E1,-5.304968262E0,4.426445160E0,7.667056274E0,1.032084575E1
1.427020617E1,-5.312003632E0,4.448449402E0,7.682025146E0,1.034502755E1
1.428023217E1,-5.380561066E0,4.523144073E0,7.780670013E0,1.048561374E1
1.429025717E1,-5.445975037E0,4.589306488E0,7.871231689E0,1.061492659E1
1.430028317E1,-5.461991730E0,4.602628784E0,7.879015503E0,1.063468056E1
1.431030917E1,-5.425018616E0,4.577930145E0,7.825726318E0,1.056552241E1
1.432033517E1,-5.387147369E0,4.536466370E0,7.758366394E0,1.047822184E1
1.433036017E1,-5.390590210E0,4.509821777E0,7.732320557E0,1.044919789E1
1.434038617E1,-5.447022858E0,4.538262634E0,7.804769897E0,1.054420784E1
1.435041217E1,-5.502257996E0,4.558769989E0,7.875273285E0,1.063377431E1
1.436043817E1,-5.535339203E0,4.547243958E0,7.924820251E0,1.068270489E1
1.437046317E1,-5.535488892E0,4.521647186E0,7.912994843E0,1.066313359E1
1.438048917E1,-5.534291382E0,4.472249908E0,7.891589355E0,1.062575093E1
1.439051517E1,-5.557343445E0,4.445305939E0,7.906857605E0,1.063781971E1
1.440054117E1,-5.554349670E0,4.392016754E0,7.902067566E0,1.061052700E1
1.441056617E1,-5.496569824E0,4.295766907E0,7.801776123E0,1.046583030E1
1.442059217E1,-5.435945892E0,4.199666748E0,7.696694641E0,1.031628891E1
1.443061817E1,-5.416186981E0,4.133354645E0,7.660919037E0,1.025228670E1
1.444064417E1,-5.483846283E0,4.132007446E0,7.756121063E0,1.035873880E1
1.445066917E1,-5.575455780E0,4.144581299E0,7.881859589E0,1.050652045E1
1.446069517E1,-5.604495392E0,4.110302582E0,7.921826477E0,1.053851463E1
1.447072117E1,-5.592669983E0,4.051923981E0,7.890541534E0,1.048602361E1
1.448074717E1,-5.554349670E0,3.979624329E0,7.824828186E0,1.038826964E1
1.449077217E1,-5.532644806E0,3.911965027E0,7.805218964E0,1.033610526E1
1.450079817E1,-5.562582550E0,3.896846466E0,7.846982117E0,1.037799910E1
1.451082417E1,-5.573659515E0,3.856879578E0,7.853867798E0,1.037421996E1
1.452085017E1,-5.522316284E0,3.785328369E0,7.780819702E0,1.026478657E1
1.453087617E1,-5.458698578E0,3.713926849E0,7.701185303E0,1.014390940E1
1.454090117E1,-5.439688110E0,3.671265564E0,7.660769348E0,1.008740723E1
1.455092717E1,-5.439987488E0,3.648662567E0,7.667355652E0,1.008437133E1
1.456095317E1,-5.457501068E0,3.636837158E0,7.681725769E0,1.010048579E1
1.457097917E1,-5.421575775E0,3.602109375E0,7.622748413E0,1.002372033E1
1.458100417E1,-5.365891571E0,3.541335754E0,7.567064209E0,9.929466855E0
1.459103017E1,-5.303920441E0,3.488795013E0,7.469317474E0,9.802752992E0
1.460105617E1,-5.226980438E0,3.441942444E0,7.364086304E0,9.664267141E0
1.461108217E1,-5.212161255E0,3.420237579E0,7.334298248E0,9.625828839E0
1.462110717E1,-5.211412811E0,3.412453766E0,7.330556030E0,9.619808517E0
1.463113317E1,-5.195545807E0,3.401077423E0,7.328011322E0,9.605247202E0
1.464115917E1,-5.203329620E0,3.396437073E0,7.342381439E0,9.618783142E0
1.465118417E1,-5.203179932E0,3.395239563E0,7.343429260E0,9.619079290E0
1.466121017E1,-5.188660126E0,3.388054504E0,7.324418793E0,9.594176248E0
1.467123617E1,-5.204826508E0,3.395089874E0,7.339237976E0,9.616718167E0
1.468126217E1,-5.236560516E0,3.407963104E0,7.388335876E0,9.675912649E0
1.469128817E1,-5.254523163E0,3.416345673E0,7.413333893E0,9.707674842E0
1.470131317E1,-5.231022034E0,3.405568085E0,7.383396149E0,9.668299964E0
1.471133917E1,-5.195845184E0,3.381767578E0,7.334148560E0,9.603275182E0
1.472136517E1,-5.189109192E0,3.375181274E0,7.325616302E0,9.590795434E0
1.473139117E1,-5.195545807E0,3.376827850E0,7.336842957E0,9.603433091E0
1.474141617E1,-5.245990906E0,3.400328979E0,7.401508484E0,9.688394376E0
1.475144217E1,-5.283263397E0,3.423231354E0,7.455396423E0,9.757782579E0
1.476146817E1,-5.265600128E0,3.410657501E0,7.419321442E0,9.716247216E0
1.477149417E1,-5.245691528E0,3.392395477E0,7.413633270E0,9.694719436E0
1.478151917E1,-5.248535614E0,3.391347656E0,7.420069885E0,9.700814508E0
1.479154517E1,-5.244643707E0,3.397484894E0,7.443571014E0,9.718844616E0
1.480157117E1,-5.238955536E0,3.389551392E0,7.424261169E0,9.698214663E0
1.481159717E1,-5.222789154E0,3.370989990E0,7.410789185E0,9.672688168E0
1.482162217E1,-5.227279816E0,3.367846527E0,7.430997162E0,9.689507899E0
1.483164817E1,-5.253175964E0,3.378025360E0,7.467820587E0,9.735258464E0
1.484167417E1,-5.271288300E0,3.371888123E0,7.498506775E0,9.766458606E0
1.485170017E1,-5.270839233E0,3.370540924E0,7.494914246E0,9.762992978E0
1.486172517E1,-5.235063629E0,3.347638550E0,7.465575256E0,9.713258412E0
1.487175083E1,-5.187163239E0,3.315006409E0,7.413932648E0,9.636510118E0
1.488177683E1,-5.188809814E0,3.314707031E0,7.416177979E0,9.639020998E0
1.489180283E1,-5.220244446E0,3.333867188E0,7.462581482E0,9.698234111E0
1.490182783E1,-5.240751801E0,3.350183258E0,7.501949615E0,9.745176003E0
1.491185383E1,-5.252726898E0,3.372187500E0,7.542066193E0,9.790074099E0
1.492187983E1,-5.232518921E0,3.380121002E0,7.532785492E0,9.774831432E0
1.493190583E1,-5.245841217E0,3.395538940E0,7.542515259E0,9.794798170E0
1.494193083E1,-5.279371490E0,3.431164856E0,7.598199463E0,9.867993245E0
1.495195683E1,-5.319338379E0,3.492836609E0,7.661966858E0,9.959970105E0
1.496198283E1,-5.348976746E0,3.539838867E0,7.724686432E0,1.004055735E1
1.497200883E1,-5.305716705E0,3.532055054E0,7.656578064E0,9.962390793E0
1.498203383E1,-5.281916199E0,3.564088440E0,7.630681915E0,9.941261068E0
1.499205983E1,-5.319637756E0,3.634741516E0,7.692054291E0,1.003382235E1
1.500208583E1,-5.335355072E0,3.695964203E0,7.739655304E0,1.010091230E1
1.501211183E1,-5.330265656E0,3.744014282E0,7.740403748E0,1.011648284E1
1.502213683E1,-5.343737640E0,3.806883545E0,7.750133514E0,1.015443075E1
1.503216283E1,-5.353467407E0,3.874692535E0,7.780220947E0,1.020807002E1
1.504218883E1,-5.350922699E0,3.925586700E0,7.771089935E0,1.021921932E1
1.505221483E1,-5.369633789E0,3.988006897E0,7.797884216E0,1.027346895E1
1.506223983E1,-5.377866669E0,4.055366821E0,7.819289703E0,1.032030724E1
1.507226583E1,-5.370681610E0,4.113745422E0,7.806416473E0,1.032992064E1
1.508229183E1,-5.392985229E0,4.165687408E0,7.822732544E0,1.037460292E1
1.509231783E1,-5.444029083E0,4.259691925E0,7.899971924E0,1.049723699E1
1.510234283E1,-5.473068695E0,4.330195312E0,7.961793365E0,1.058750329E1
1.511236883E1,-5.442981262E0,4.353247375E0,7.900271301E0,1.053523110E1
1.512239483E1,-5.389093323E0,4.344715118E0,7.824828186E0,1.044733518E1
1.513242083E1,-5.351820831E0,4.353546753E0,7.773035889E0,1.039304779E1
1.514244583E1,-5.370681610E0,4.398004303E0,7.775281219E0,1.042313105E1
1.515247183E1,-5.417234802E0,4.457879791E0,7.842341766E0,1.052242603E1
1.516249783E1,-5.453609161E0,4.498744812E0,7.878566437E0,1.058547906E1
1.517252383E1,-5.445376282E0,4.503834229E0,7.847880249E0,1.056058095E1
1.518254883E1,-5.367538147E0,4.446952515E0,7.748636627E0,1.042243839E1
1.519257483E1,-5.347330170E0,4.447551270E0,7.696245575E0,1.037337207E1
1.520260083E1,-5.342689819E0,4.439617767E0,7.665260010E0,1.034460011E1
1.521262683E1,-5.339845734E0,4.440515900E0,7.656278687E0,1.033686303E1
1.522265183E1,-5.334307251E0,4.417912903E0,7.630382538E0,1.030512135E1
1.523267783E1,-5.314099274E0,4.387675781E0,7.603288879E0,1.026164468E1
1.524270383E1,-5.264851685E0,4.330943756E0,7.514373779E0,1.014601155E1
1.525272983E1,-5.253625031E0,4.300856323E0,7.478598175E0,1.010085995E1
1.526275483E1,-5.278323669E0,4.286635895E0,7.503147125E0,1.012586613E1
1.527278083E1,-5.278772736E0,4.256249084E0,7.485633545E0,1.010028749E1
1.528280683E1,-5.247637482E0,4.211043091E0,7.429350586E0,1.002326460E1
1.529283283E1,-5.211412811E0,4.142485657E0,7.363637238E0,9.926840599E0
1.530285783E1,-5.203928375E0,4.096680908E0,7.343279572E0,9.888752189E0
1.531288383E1,-5.222789154E0,4.076772308E0,7.356452179E0,9.900251899E0
1.532290983E1,-5.235512695E0,4.037703552E0,7.366181946E0,9.898195776E0
1.533293583E1,-5.244194641E0,3.999981995E0,7.380701752E0,9.898292365E0
1.534296083E1,-5.222789154E0,3.936513977E0,7.339537354E0,9.830690586E0
1.535298683E1,-5.190306702E0,3.874243469E0,7.277865601E0,9.742503468E0
1.536301283E1,-5.213658142E0,3.838168488E0,7.307503967E0,9.762857307E0
1.537303883E1,-5.257067871E0,3.815116425E0,7.363038483E0,9.818666489E0
1.538306383E1,-5.283113708E0,3.789819031E0,7.395670624E0,9.847332772E0
1.539308983E1,-5.294490051E0,3.758085022E0,7.416327667E0,9.856812061E0
1.540311583E1,-5.299729156E0,3.707340546E0,7.407046967E0,9.833404691E0
1.541314183E1,-5.292843475E0,3.659440155E0,7.396419067E0,9.803708957E0
1.542316683E1,-5.281467133E0,3.615581360E0,7.394622803E0,9.779916668E0
1.543319283E1,-5.304818573E0,3.584895172E0,7.417974243E0,9.798924194E0
1.544321883E1,-5.335804138E0,3.575015717E0,7.454947357E0,9.840110938E0
1.545324483E1,-5.347180481E0,3.555107117E0,7.480394440E0,9.858368358E0
1.546326983E1,-5.352269897E0,3.516188049E0,7.474107513E0,9.842390694E0
1.547329583E1,-5.379662933E0,3.514391785E0,7.504943390E0,9.880075818E0
1.548332183E1,-5.392087097E0,3.496728516E0,7.534132690E0,9.902770772E0
1.549334783E1,-5.377267914E0,3.474275208E0,7.517517242E0,9.874141174E0
1.550337283E1,-5.383105774E0,3.457061005E0,7.516020355E0,9.870139844E0
1.551339883E1,-5.364993439E0,3.438050537E0,7.500153351E0,9.841526628E0
1.552342483E1,-5.368585968E0,3.434458008E0,7.540569305E0,9.873064497E0
1.553345083E1,-5.364544373E0,3.426374817E0,7.519014130E0,9.851596530E0
1.554347583E1,-5.309309235E0,3.381617889E0,7.435188446E0,9.741977793E0
1.555350183E1,-5.280269623E0,3.347488861E0,7.373367004E0,9.667133492E0
1.556352783E1,-5.311404877E0,3.366499329E0,7.430398407E0,9.734226214E0
1.557355383E1,-5.378315735E0,3.413950653E0,7.546856232E0,9.876050738E0
1.558357883E1,-5.415139160E0,3.437451782E0,7.610623627E0,9.952959302E0
1.559360483E1,-5.456004181E0,3.453468475E0,7.657775574E0,1.001678356E1
1.560363083E1,-5.451812897E0,3.453767853E0,7.669451294E0,1.002353527E1
1.561365683E1,-5.390889587E0,3.415746918E0,7.589966583E0,9.916481749E0
1.562368183E1,-5.310506744E0,3.366948395E0,7.479196930E0,9.771192869E0
1.563370783E1,-5.315147095E0,3.377127228E0,7.485932922E0,9.782380522E0
1.564373383E1,-5.376070404E0,3.404969330E0,7.584877167E0,9.900823742E0
1.565375983E1,-5.407804413E0,3.427123260E0,7.628586273E0,9.959159148E0
1.566378483E1,-5.398224335E0,3.416495361E0,7.627688141E0,9.949617726E0
1.567381083E1,-5.372627563E0,3.401227112E0,7.596552887E0,9.906618422E0
1.568383683E1,-5.363646240E0,3.398832092E0,7.580536194E0,9.888644476E0
1.569386283E1,-5.386847992E0,3.409909058E0,7.620203705E0,9.935447427E0
1.570388783E1,-5.418582001E0,3.439846802E0,7.685018921E0,1.001264664E1
1.571391383E1,-5.468578033E0,3.471730499E0,7.733368378E0,1.008777700E1
1.572393983E1,-5.465135193E0,3.469335480E0,7.747738495E0,1.009611030E1
1.573396583E1,-5.450316010E0,3.473377075E0,7.744744720E0,1.008718810E1
1.574399083E1,-5.415438538E0,3.464844818E0,7.700586548E0,1.003150823E1
1.575401683E1,-5.384003906E0,3.455713806E0,7.661667480E0,9.981513139E0
1.576404283E1,-5.392386475E0,3.472029877E0,7.678881683E0,1.000490116E1
1.577406883E1,-5.399122467E0,3.503913574E0,7.719297638E0,1.005064624E1
1.578409383E1,-5.420527954E0,3.525319061E0,7.738757172E0,1.008456049E1
1.579411983E1,-5.453609161E0,3.570974121E0,7.798183594E0,1.016392525E1
1.580414583E1,-5.470973053E0,3.612288208E0,7.854017487E0,1.023062867E1
1.581417083E1,-5.461392975E0,3.620521088E0,7.826325073E0,1.020717151E1
1.582419683E1,-5.414839783E0,3.627556458E0,7.773335266E0,1.014418044E1
1.583422283E1,-5.410199432E0,3.661535797E0,7.774233398E0,1.015459537E1
1.584424883E1,-5.420527954E0,3.691323853E0,7.791447601E0,1.018403902E1
1.585427383E1,-5.398823090E0,3.713926849E0,7.779921570E0,1.017190852E1
1.586430004E1,-5.392236786E0,3.738924866E0,7.767647095E0,1.016819149E1
1.587432604E1,-5.377716980E0,3.758534088E0,7.752079468E0,1.015584337E1
1.588435204E1,-5.361700287E0,3.783681793E0,7.733218689E0,1.014232464E1
1.589437704E1,-5.317991180E0,3.785777435E0,7.667205963E0,1.006971639E1
1.590440304E1,-5.280569000E0,3.813619537E0,7.620203705E0,1.002474974E1
1.591442904E1,-5.273234253E0,3.840413818E0,7.602540436E0,1.001770427E1
1.592445504E1,-5.241051178E0,3.857777710E0,7.565866699E0,9.979649554E0
1.593448004E1,-5.219496002E0,3.882775726E0,7.531438293E0,9.951967073E0
1.594450604E1,-5.196593628E0,3.909719696E0,7.495363312E0,9.923253731E0
1.595453204E1,-5.191354523E0,3.945195923E0,7.487130432E0,9.928335951E0
1.596455804E1,-5.205275574E0,3.992796936E0,7.511529694E0,9.972983481E0
1.597458304E1,-5.207670593E0,4.038302307E0,7.519163818E0,9.998277005E0
1.598460904E1,-5.178780670E0,4.048331451E0,7.467072144E0,9.948161798E0
1.599463504E1,-5.136867828E0,4.055516510E0,7.400011597E0,9.879007889E0
1.600466104E1,-5.140310669E0,4.096830597E0,7.394473114E0,9.893687247E0
1.601468604E1,-5.196743317E0,4.173770599E0,7.480394440E0,1.001912187E1
1.602471204E1,-5.242697754E0,4.234394531E0,7.534731445E0,1.010881569E1
1.603473804E1,-5.210364990E0,4.235442352E0,7.498506775E0,1.006550938E1
1.604476404E1,-5.200934601E0,4.243675232E0,7.445966034E0,1.002501423E1
1.605478904E1,-5.207969971E0,4.256398773E0,7.452103271E0,1.003861170E1
1.606481504E1,-5.195994873E0,4.268673248E0,7.430398407E0,1.002151458E1
1.607484104E1,-5.213508453E0,4.288432159E0,7.439080353E0,1.004545854E1
1.608486704E1,-5.259911957E0,4.323309631E0,7.504943390E0,1.013320558E1
1.609489204E1,-5.306165771E0,4.348756714E0,7.549251251E0,1.020089577E1
1.610491804E1,-5.308111725E0,4.331991577E0,7.530390472E0,1.018081440E1
1.611494404E1,-5.300327911E0,4.313430176E0,7.505093079E0,1.015015162E1
1.612497004E1,-5.291945343E0,4.299060059E0,7.506889343E0,1.014100540E1
1.613499504E1,-5.310656433E0,4.283642120E0,7.506140900E0,1.014370804E1
1.614502104E1,-5.330265656E0,4.270170135E0,7.524253235E0,1.016171598E1
1.615504704E1,-5.341641998E0,4.246219940E0,7.529791718E0,1.016175607E1
1.616507304E1,-5.363496552E0,4.222419434E0,7.537126465E0,1.016878540E1
1.617509804E1,-5.358407135E0,4.176464996E0,7.523205414E0,1.013676509E1
1.618512404E1,-5.330714722E0,4.110452271E0,7.453600159E0,1.004333075E1
1.619515004E1,-5.311105499E0,4.060456238E0,7.417375488E0,9.985619942E0
1.620517604E1,-5.309907990E0,4.024980011E0,7.415429535E0,9.969161556E0
1.621520104E1,-5.329966278E0,3.994742889E0,7.424560547E0,9.974498012E0
1.622522704E1,-5.378914490E0,3.986959076E0,7.491022339E0,1.004708811E1
1.623525304E1,-5.386398926E0,3.932322693E0,7.499853973E0,1.003614790E1
1.624527904E1,-5.360353088E0,3.866309967E0,7.441475372E0,9.952753072E0
1.625530404E1,-5.317542114E0,3.786974945E0,7.388036499E0,9.859032239E0
1.626533004E1,-5.301226044E0,3.728147278E0,7.351662140E0,9.800459985E0
1.627535604E1,-5.302573242E0,3.674259338E0,7.338489532E0,9.770920801E0
1.628538204E1,-5.304369507E0,3.637585602E0,7.356601868E0,9.771793894E0
1.629540704E1,-5.344186707E0,3.609593811E0,7.401957550E0,9.817253924E0
1.630543304E1,-5.391488342E0,3.592080231E0,7.492519226E0,9.905000317E0
1.631545904E1,-5.403164062E0,3.555107117E0,7.491321716E0,9.897114203E0
1.632548504E1,-5.400170288E0,3.514092407E0,7.504194946E0,9.890582712E0
1.633551004E1,-5.396877136E0,3.470083923E0,7.502698059E0,9.872094176E0
1.634553604E1,-5.371280365E0,3.419040070E0,7.467371521E0,9.813364621E0
1.635556204E1,-5.381758575E0,3.380420380E0,7.473209381E0,9.810169507E0
1.636558804E1,-5.396577759E0,3.356619873E0,7.493117981E0,9.825312491E0
1.637561304E1,-5.415737915E0,3.338507538E0,7.525750122E0,9.854580896E0
1.638563904E1,-5.425168304E0,3.315006409E0,7.553143158E0,9.872775202E0
1.639566504E1,-5.432652740E0,3.299887848E0,7.567962341E0,9.883169006E0
1.640569104E1,-5.429060211E0,3.290008392E0,7.568860474E0,9.878587898E0
1.641571604E1,-5.415588226E0,3.275338898E0,7.550598450E0,9.852308241E0
1.642574204E1,-5.439538422E0,3.274440765E0,7.587272186E0,9.893292667E0
1.643576804E1,-5.450316010E0,3.285218353E0,7.612569580E0,9.922188259E0
1.644579404E1,-5.459297333E0,3.290158081E0,7.624394989E0,9.937830071E0
1.645581904E1,-5.484744415E0,3.310815125E0,7.668702850E0,9.992643369E0
1.646584504E1,-5.500162354E0,3.339555359E0,7.711813202E0,1.004372833E1
1.647587104E1,-5.524411926E0,3.369193726E0,7.743547211E0,1.009123961E1
1.648589704E1,-5.503006439E0,3.378923492E0,7.740403748E0,1.008037966E1
1.649592204E1,-5.488037567E0,3.397484894E0,7.743098145E0,1.008052721E1
1.650594804E1,-5.489085388E0,3.413052521E0,7.745193787E0,1.008796375E1
1.651597404E1,-5.481151886E0,3.433709564E0,7.732619934E0,1.008101178E1
1.652600004E1,-5.509443054E0,3.476370850E0,7.790848846E0,1.015561139E1
1.653602504E1,-5.550457764E0,3.532953186E0,7.868986359E0,1.025720654E1
1.654605104E1,-5.573809204E0,3.568579102E0,7.887547760E0,1.029638361E1
1.655607704E1,-5.517526245E0,3.564088440E0,7.830216980E0,1.022047554E1
1.656610304E1,-5.460794220E0,3.551514587E0,7.765252075E0,1.013571256E1
1.657612804E1,-5.461093597E0,3.568279724E0,7.758366394E0,1.013648916E1
1.658615404E1,-5.492827606E0,3.607498169E0,7.805368652E0,1.020338071E1
1.659618004E1,-5.513933716E0,3.646267548E0,7.844886475E0,1.025870244E1
1.660620504E1,-5.500761108E0,3.657643890E0,7.830965424E0,1.024503544E1
1.661623104E1,-5.443580017E0,3.638034668E0,7.761958923E0,1.015459827E1
1.662625704E1,-5.397924957E0,3.626209259E0,7.691455536E0,1.007201448E1
1.663628304E1,-5.355113983E0,3.626508636E0,7.652087402E0,1.001914429E1
1.664630804E1,-5.357808380E0,3.638334045E0,7.644453278E0,1.001904442E1
1.665633404E1,-5.355712738E0,3.657194824E0,7.641160126E0,1.002227823E1
1.666636004E1,-5.333109741E0,3.662882996E0,7.613916779E0,9.991521409E0
1.667638604E1,-5.282365265E0,3.652404785E0,7.541617126E0,9.905525346E0
1.668641104E1,-5.237608337E0,3.633693695E0,7.478897552E0,9.827012749E0
1.669643704E1,-5.226231995E0,3.658542023E0,7.465575256E0,9.820042999E0
1.670646304E1,-5.253325653E0,3.687881012E0,7.507338409E0,9.877146692E0
1.671648904E1,-5.272036743E0,3.723955994E0,7.531737671E0,9.919137664E0
1.672651404E1,-5.225034485E0,3.719615021E0,7.479196930E0,9.852659945E0
1.673654004E1,-5.120402069E0,3.665278015E0,7.349117432E0,9.677928875E0
1.674656604E1,-5.059927826E0,3.639830933E0,7.247927856E0,9.559482048E0
1.675659204E1,-5.070555725E0,3.668122101E0,7.266040192E0,9.589629564E0
1.676661704E1,-5.083578644E0,3.696263580E0,7.281308441E0,9.618866300E0
1.677664304E1,-5.082830200E0,3.711082764E0,7.273973694E0,9.618627315E0
1.678666904E1,-5.091512146E0,3.737278290E0,7.276368713E0,9.635158878E0
1.679669504E1,-5.091063080E0,3.750301208E0,7.280260620E0,9.642918497E0
1.680672004E1,-5.089416504E0,3.778592377E0,7.288493500E0,9.659299053E0
1.681674604E1,-5.107678528E0,3.813918915E0,7.297923889E0,9.689894247E0
1.682677204E1,-5.105882263E0,3.833079071E0,7.306905212E0,9.703267111E0
1.683679804E1,-5.107229462E0,3.848197632E0,7.293882294E0,9.700161684E0
1.684682304E1,-5.091661835E0,3.863465881E0,7.264842682E0,9.676224886E0
1.685684904E1,-5.046904907E0,3.848197632E0,7.205865326E0,9.602310620E0
1.686687542E1,-5.002597046E0,3.827839966E0,7.128476257E0,9.512807670E0
1.687690142E1,-5.012626190E0,3.859723663E0,7.152127075E0,9.548654868E0
1.688692642E1,-5.079986115E0,3.937711487E0,7.235354004E0,9.677922207E0
1.689695242E1,-5.170248413E0,4.013753357E0,7.343878326E0,9.837389569E0
1.690697842E1,-5.195246429E0,4.061653748E0,7.399562531E0,9.911666977E0
